{"paths": {"/CarePlan": {"post": {"tags": ["CarePlan"], "responses": {"200": {"description": "Success", "content": {}}, "400": {"description": "Invalid"}, "404": {"description": "Not-Found"}, "406": {"description": "Not-Supported"}, "503": {"description": "Operation"}, "401": {"description": "Unauthorized"}, "403": {"description": "Forbidden"}, "415": {"description": "Unsupported-Type"}, "500": {"description": "Internal-Error"}, "502": {"description": "Bad-Gateway"}}, "requestBody": {"content": {"application/fhir+json": {"schema": {"$ref": "#/components/schemas/CarePlan"}, "examples": {"careplan-example-f001-heart.json": {"value": {"resourceType": "CarePlan", "id": "f001", "text": {"status": "generated", "div": "<div xmlns=\"http://www.w3.org/1999/xhtml\"><p><b>Generated Narrative with Details</b></p><p><b>id</b>: f001</p><p><b>contained</b>: , </p><p><b>identifier</b>: CP2903 (OFFICIAL)</p><p><b>status</b>: completed</p><p><b>intent</b>: plan</p><p><b>subject</b>: <a>P. van de Heuvel</a></p><p><b>period</b>: 26/06/2011 --&gt; 27/06/2011</p><p><b>careTeam</b>: id: careteam</p><p><b>addresses</b>: <a>?????</a></p><p><b>goal</b>: id: goal; lifecycleStatus: completed; Achieved <span>(Details : {http://terminology.hl7.org/CodeSystem/goal-achievement code 'achieved' = 'Achieved', given as 'Achieved'})</span>; recovery surgery on heart of patient <span>(Details )</span>; Annotation: goal accomplished without complications</p><blockquote><p><b>activity</b></p><h3>Details</h3><table><tr><td>-</td><td><b>Kind</b></td><td><b>Code</b></td><td><b>Status</b></td><td><b>DoNotPerform</b></td><td><b>Scheduled[x]</b></td><td><b>Performer</b></td></tr><tr><td>*</td><td>ServiceRequest</td><td>Operation on heart <span>(Details : {SNOMED CT code '64915003' = 'Operative procedure on heart', given as 'Operation on heart'})</span></td><td>completed</td><td>true</td><td>2011-06-27T09:30:10+01:00</td><td><a>P. Voigt</a></td></tr></table></blockquote></div>"}, "contained": [{"resourceType": "CareTeam", "id": "careteam", "participant": [{"member": {"reference": "Practitioner/f002", "display": "P. Voigt"}}]}, {"resourceType": "Goal", "id": "goal", "lifecycleStatus": "completed", "achievementStatus": {"coding": [{"system": "http://terminology.hl7.org/CodeSystem/goal-achievement", "code": "achieved", "display": "Achieved"}], "text": "Achieved"}, "description": {"text": "recovery surgery on heart of patient"}, "subject": {"reference": "Patient/f001", "display": "P. van de Heuvel"}, "note": [{"text": "goal accomplished without complications"}]}], "identifier": [{"use": "official", "system": "http://www.bmc.nl/zorgportal/identifiers/careplans", "value": "CP2903"}], "status": "completed", "intent": "plan", "subject": {"reference": "Patient/f001", "display": "P. van de Heuvel"}, "period": {"start": "2011-06-26", "end": "2011-06-27"}, "careTeam": [{"reference": "#careteam"}], "addresses": [{"reference": "Condition/f201", "display": "?????"}], "goal": [{"reference": "#goal"}], "activity": [{"detail": {"kind": "ServiceRequest", "code": {"coding": [{"system": "http://snomed.info/sct", "code": "64915003", "display": "Operation on heart"}]}, "status": "completed", "doNotPerform": true, "scheduledString": "2011-06-27T09:30:10+01:00", "performer": [{"reference": "Practitioner/f002", "display": "P. Voigt"}]}}], "meta": {"tag": [{"system": "http://terminology.hl7.org/CodeSystem/v3-ActReason", "code": "HTEST", "display": "test health data"}]}}}, "careplan-example-f002-lung.json": {"value": {"resourceType": "CarePlan", "id": "f002", "text": {"status": "generated", "div": "<div xmlns=\"http://www.w3.org/1999/xhtml\"><p><b>Generated Narrative with Details</b></p><p><b>id</b>: f002</p><p><b>contained</b>: , </p><p><b>identifier</b>: CP2934 (OFFICIAL)</p><p><b>status</b>: completed</p><p><b>intent</b>: plan</p><p><b>subject</b>: <a>P. van de Heuvel</a></p><p><b>period</b>: 06/07/2011 --&gt; 07/07/2013</p><p><b>careTeam</b>: id: careteam</p><p><b>addresses</b>: <a>?????</a></p><p><b>goal</b>: id: goal; lifecycleStatus: completed; Achieved <span>(Details : {http://terminology.hl7.org/CodeSystem/goal-achievement code 'achieved' = 'Achieved', given as 'Achieved'})</span>; succesful surgery on lung of patient <span>(Details )</span>; Annotation: goal accomplished with minor complications</p><blockquote><p><b>activity</b></p><h3>Details</h3><table><tr><td>-</td><td><b>Kind</b></td><td><b>Code</b></td><td><b>Status</b></td><td><b>DoNotPerform</b></td><td><b>Scheduled[x]</b></td><td><b>Performer</b></td></tr><tr><td>*</td><td>ServiceRequest</td><td>Partial lobectomy of lung <span>(Details : {SNOMED CT code '359615001' = 'Partial lobectomy of lung', given as 'Partial lobectomy of lung'})</span></td><td>completed</td><td>true</td><td>2011-07-07T09:30:10+01:00</td><td><a>M.I.M. Versteegh</a></td></tr></table></blockquote></div>"}, "contained": [{"resourceType": "CareTeam", "id": "careteam", "participant": [{"member": {"reference": "Practitioner/f003", "display": "M.I.M. Versteegh"}}]}, {"resourceType": "Goal", "id": "goal", "lifecycleStatus": "completed", "achievementStatus": {"coding": [{"system": "http://terminology.hl7.org/CodeSystem/goal-achievement", "code": "achieved", "display": "Achieved"}], "text": "Achieved"}, "description": {"text": "succesful surgery on lung of patient"}, "subject": {"reference": "Patient/f001", "display": "P. van de Heuvel"}, "note": [{"text": "goal accomplished with minor complications"}]}], "identifier": [{"use": "official", "system": "http://www.bmc.nl/zorgportal/identifiers/careplans", "value": "CP2934"}], "status": "completed", "intent": "plan", "subject": {"reference": "Patient/f001", "display": "P. van de Heuvel"}, "period": {"start": "2011-07-06", "end": "2013-07-07"}, "careTeam": [{"reference": "#careteam"}], "addresses": [{"reference": "Condition/f201", "display": "?????"}], "goal": [{"reference": "#goal"}], "activity": [{"detail": {"kind": "ServiceRequest", "code": {"coding": [{"system": "http://snomed.info/sct", "code": "359615001", "display": "Partial lobectomy of lung"}]}, "status": "completed", "doNotPerform": true, "scheduledString": "2011-07-07T09:30:10+01:00", "performer": [{"reference": "Practitioner/f003", "display": "M.I.M. Versteegh"}]}}], "meta": {"tag": [{"system": "http://terminology.hl7.org/CodeSystem/v3-ActReason", "code": "HTEST", "display": "test health data"}]}}}, "careplan-example-f003-pharynx.json": {"value": {"resourceType": "CarePlan", "id": "f003", "text": {"status": "generated", "div": "<div xmlns=\"http://www.w3.org/1999/xhtml\"><p><b>Generated Narrative with Details</b></p><p><b>id</b>: f003</p><p><b>contained</b>: , </p><p><b>identifier</b>: CP3953 (OFFICIAL)</p><p><b>status</b>: completed</p><p><b>intent</b>: plan</p><p><b>subject</b>: <a>P. van de Heuvel</a></p><p><b>period</b>: 08/03/2013 9:00:10 AM --&gt; 08/03/2013 9:30:10 AM</p><p><b>careTeam</b>: id: careteam</p><p><b>addresses</b>: <a>?????</a></p><p><b>goal</b>: id: goal; lifecycleStatus: completed; Achieved <span>(Details : {http://terminology.hl7.org/CodeSystem/goal-achievement code 'achieved' = 'Achieved', given as 'Achieved'})</span>; Retropharyngeal abscess removal <span>(Details )</span>; Annotation: goal accomplished without complications</p><blockquote><p><b>activity</b></p><h3>Details</h3><table><tr><td>-</td><td><b>Kind</b></td><td><b>Code</b></td><td><b>Status</b></td><td><b>DoNotPerform</b></td><td><b>Scheduled[x]</b></td><td><b>Performer</b></td></tr><tr><td>*</td><td>ServiceRequest</td><td>Incision of retropharyngeal abscess <span>(Details : {SNOMED CT code '172960003' = 'Incision of retropharyngeal abscess', given as 'Incision of retropharyngeal abscess'})</span></td><td>completed</td><td>true</td><td>2011-06-27T09:30:10+01:00</td><td><a>E.M. van den broek</a></td></tr></table></blockquote></div>"}, "contained": [{"resourceType": "CareTeam", "id": "careteam", "participant": [{"member": {"reference": "Practitioner/f001", "display": "E.M. van den broek"}}]}, {"resourceType": "Goal", "id": "goal", "lifecycleStatus": "completed", "achievementStatus": {"coding": [{"system": "http://terminology.hl7.org/CodeSystem/goal-achievement", "code": "achieved", "display": "Achieved"}], "text": "Achieved"}, "description": {"text": "Retropharyngeal abscess removal"}, "subject": {"reference": "Patient/f001", "display": "P. van de Heuvel"}, "note": [{"text": "goal accomplished without complications"}]}], "identifier": [{"use": "official", "system": "http://www.bmc.nl/zorgportal/identifiers/careplans", "value": "CP3953"}], "status": "completed", "intent": "plan", "subject": {"reference": "Patient/f001", "display": "P. van de Heuvel"}, "period": {"start": "2013-03-08T09:00:10+01:00", "end": "2013-03-08T09:30:10+01:00"}, "careTeam": [{"reference": "#careteam"}], "addresses": [{"reference": "Condition/f201", "display": "?????"}], "goal": [{"reference": "#goal"}], "activity": [{"detail": {"kind": "ServiceRequest", "code": {"coding": [{"system": "http://snomed.info/sct", "code": "172960003", "display": "Incision of retropharyngeal abscess"}]}, "status": "completed", "doNotPerform": true, "scheduledString": "2011-06-27T09:30:10+01:00", "performer": [{"reference": "Practitioner/f001", "display": "E.M. van den broek"}]}}], "meta": {"tag": [{"system": "http://terminology.hl7.org/CodeSystem/v3-ActReason", "code": "HTEST", "display": "test health data"}]}}}, "careplan-example-f201-renal.json": {"value": {"resourceType": "CarePlan", "id": "f201", "text": {"status": "generated", "div": "<div xmlns=\"http://www.w3.org/1999/xhtml\"><p><b>Generated Narrative with Details</b></p><p><b>id</b>: f201</p><p><b>contained</b>: , </p><p><b>status</b>: draft</p><p><b>intent</b>: proposal</p><p><b>subject</b>: <a>Roel</a></p><p><b>period</b>: 11/03/2013 --&gt; 13/03/2013</p><p><b>careTeam</b>: id: careteam</p><p><b>addresses</b>: <a>Roel's renal insufficiency</a></p><p><b>goal</b>: id: goal; lifecycleStatus: completed; Achieved <span>(Details : {http://terminology.hl7.org/CodeSystem/goal-achievement code 'achieved' = 'Achieved', given as 'Achieved'})</span>; Re-established renal function with at least healthy nutrients. <span>(Details )</span></p><blockquote><p><b>activity</b></p><h3>Details</h3><table><tr><td>-</td><td><b>Kind</b></td><td><b>Code</b></td><td><b>Status</b></td><td><b>DoNotPerform</b></td><td><b>Scheduled[x]</b></td><td><b>Product[x]</b></td><td><b>DailyAmount</b></td></tr><tr><td>*</td><td>NutritionOrder</td><td>Potassium supplementation <span>(Details : {SNOMED CT code '284093001' = 'Potassium supplementation', given as 'Potassium supplementation'})</span></td><td>completed</td><td>false</td><td>daily</td><td><a>Potassium</a></td><td>80 mmol<span> (Details: SNOMED CT code 258718000 = 'millimole')</span></td></tr></table></blockquote><blockquote><p><b>activity</b></p><h3>Details</h3><table><tr><td>-</td><td><b>Kind</b></td><td><b>Code</b></td><td><b>Status</b></td><td><b>DoNotPerform</b></td></tr><tr><td>*</td><td>ServiceRequest</td><td>Echography of kidney <span>(Details : {SNOMED CT code '306005' = 'Echography of kidney', given as 'Echography of kidney'})</span></td><td>completed</td><td>false</td></tr></table></blockquote></div>"}, "contained": [{"resourceType": "CareTeam", "id": "careteam", "participant": [{"role": [{"coding": [{"system": "http://snomed.info/sct", "code": "425268008", "display": "Review of care plan"}]}], "member": {"reference": "Practitioner/f201", "display": "Dokter Bronsig"}}, {"role": [{"coding": [{"system": "http://snomed.info/sct", "code": "229774002", "display": "Carer"}]}], "member": {"reference": "Practitioner/f204", "display": "Nurse Carla Espinosa"}}]}, {"resourceType": "Goal", "id": "goal", "lifecycleStatus": "completed", "achievementStatus": {"coding": [{"system": "http://terminology.hl7.org/CodeSystem/goal-achievement", "code": "achieved", "display": "Achieved"}], "text": "Achieved"}, "description": {"text": "Re-established renal function with at least healthy nutrients."}, "subject": {"reference": "Patient/f201", "display": "Roel"}}], "status": "draft", "intent": "proposal", "subject": {"reference": "Patient/f201", "display": "Roel"}, "period": {"start": "2013-03-11", "end": "2013-03-13"}, "careTeam": [{"reference": "#careteam"}], "addresses": [{"reference": "Condition/f204", "display": "Roel's renal insufficiency"}], "goal": [{"reference": "#goal"}], "activity": [{"detail": {"kind": "NutritionOrder", "code": {"coding": [{"system": "http://snomed.info/sct", "code": "284093001", "display": "Potassium supplementation"}]}, "status": "completed", "doNotPerform": false, "scheduledString": "daily", "productReference": {"reference": "Substance/f203", "display": "Potassium"}, "dailyAmount": {"value": 80, "unit": "mmol", "system": "http://snomed.info/sct", "code": "258718000"}}}, {"detail": {"kind": "ServiceRequest", "code": {"coding": [{"system": "http://snomed.info/sct", "code": "306005", "display": "Echography of kidney"}]}, "status": "completed", "doNotPerform": false}}], "meta": {"tag": [{"system": "http://terminology.hl7.org/CodeSystem/v3-ActReason", "code": "HTEST", "display": "test health data"}]}}}, "careplan-example-f202-malignancy.json": {"value": {"resourceType": "CarePlan", "id": "f202", "text": {"status": "generated", "div": "<div xmlns=\"http://www.w3.org/1999/xhtml\"><p><b>Generated Narrative with Details</b></p><p><b>id</b>: f202</p><p><b>contained</b>: , , , , , </p><p><b>status</b>: active</p><p><b>intent</b>: plan</p><p><b>subject</b>: <a>Roel</a></p><p><b>careTeam</b>: id: careteam</p><p><b>addresses</b>: <a>Roel's head-neck tumor</a></p><p><b>goal</b>: id: goal; lifecycleStatus: active; Elimination of the spenoid bone tumor <span>(Details )</span></p><blockquote><p><b>activity</b></p><p><b>outcomeReference</b>: <a>Roel's Chemotherapy</a></p><h3>Details</h3><table><tr><td>-</td><td><b>Kind</b></td><td><b>Code</b></td><td><b>Status</b></td><td><b>DoNotPerform</b></td><td><b>Product[x]</b></td></tr><tr><td>*</td><td>ServiceRequest</td><td>Chemotherapy <span>(Details : {SNOMED CT code '367336001' = 'Chemotherapy', given as 'Chemotherapy'})</span></td><td>in-progress</td><td>false</td><td>id: tpf; TPF <span>(Details )</span></td></tr></table></blockquote></div>"}, "contained": [{"resourceType": "Medication", "id": "doce", "code": {"coding": [{"system": "http://snomed.info/sct", "code": "108806006", "display": "Docetaxel"}]}}, {"resourceType": "Medication", "id": "cisp", "code": {"coding": [{"system": "http://snomed.info/sct", "code": "57066004", "display": "Cisplatin"}]}}, {"resourceType": "Medication", "id": "fluo", "code": {"coding": [{"system": "http://snomed.info/sct", "code": "3127006", "display": "Fluorouracil"}]}}, {"resourceType": "Medication", "id": "tpf", "code": {"text": "TPF"}, "ingredient": [{"itemReference": {"reference": "#doce"}}, {"itemReference": {"reference": "#cisp"}}, {"itemReference": {"reference": "#fluo"}}]}, {"resourceType": "CareTeam", "id": "careteam", "participant": [{"role": [{"coding": [{"system": "http://snomed.info/sct", "code": "28995006", "display": "Treated with"}]}], "member": {"reference": "Practitioner/f201", "display": "Dokter Bronsig"}}]}, {"resourceType": "Goal", "id": "goal", "lifecycleStatus": "active", "description": {"text": "Elimination of the spenoid bone tumor"}, "subject": {"reference": "Patient/f201", "display": "Roel"}}], "status": "active", "intent": "plan", "subject": {"reference": "Patient/f201", "display": "Roel"}, "careTeam": [{"reference": "#careteam"}], "addresses": [{"reference": "Condition/f202", "display": "Roel's head-neck tumor"}], "goal": [{"reference": "#goal"}], "activity": [{"outcomeReference": [{"reference": "Procedure/f201", "display": "Roel's Chemotherapy"}], "detail": {"kind": "ServiceRequest", "code": {"coding": [{"system": "http://snomed.info/sct", "code": "367336001", "display": "Chemotherapy"}]}, "status": "in-progress", "doNotPerform": false, "productReference": {"reference": "#tpf"}}}], "meta": {"tag": [{"system": "http://terminology.hl7.org/CodeSystem/v3-ActReason", "code": "HTEST", "display": "test health data"}]}}}, "careplan-example-f203-sepsis.json": {"value": {"resourceType": "CarePlan", "id": "f203", "text": {"status": "generated", "div": "<div xmlns=\"http://www.w3.org/1999/xhtml\"><p><b>Generated Narrative with Details</b></p><p><b>id</b>: f203</p><p><b>contained</b>: , </p><p><b>status</b>: completed</p><p><b>intent</b>: plan</p><p><b>subject</b>: <a>Roel</a></p><p><b>period</b>: 14/04/2013 --&gt; 21/04/2013</p><p><b>careTeam</b>: id: careteam</p><p><b>addresses</b>: <a>Roel's sepsis</a></p><p><b>goal</b>: id: goal; lifecycleStatus: cancelled; Check whether further treatment of sepsis/pulmonary abcess is required <span>(Details )</span></p><blockquote><p><b>activity</b></p><h3>Details</h3><table><tr><td>-</td><td><b>Kind</b></td><td><b>Code</b></td><td><b>Status</b></td><td><b>DoNotPerform</b></td></tr><tr><td>*</td><td>ServiceRequest</td><td>High resolution computed tomography of lungs <span>(Details : {SNOMED CT code '241541005' = 'High resolution CT of lungs', given as 'High resolution computed tomography of lungs'})</span></td><td>not-started</td><td>false</td></tr></table></blockquote></div>"}, "contained": [{"resourceType": "CareTeam", "id": "careteam", "participant": [{"role": [{"coding": [{"system": "http://snomed.info/sct", "code": "425268008", "display": "Review of care plan"}]}], "member": {"reference": "Practitioner/f201", "display": "Dokter Bronsig"}}, {"role": [{"coding": [{"system": "http://snomed.info/sct", "code": "278110001", "display": "Radiographic imaging"}]}], "member": {"reference": "Practitioner/f202", "display": "Luigi Maas"}}]}, {"resourceType": "Goal", "id": "goal", "lifecycleStatus": "cancelled", "description": {"text": "Check whether further treatment of sepsis/pulmonary abcess is required"}, "subject": {"reference": "Patient/f201", "display": "Roel"}}], "status": "completed", "intent": "plan", "subject": {"reference": "Patient/f201", "display": "Roel"}, "period": {"start": "2013-04-14", "end": "2013-04-21"}, "careTeam": [{"reference": "#careteam"}], "addresses": [{"reference": "Condition/f203", "display": "Roel's sepsis"}], "goal": [{"reference": "#goal"}], "activity": [{"detail": {"kind": "ServiceRequest", "code": {"coding": [{"system": "http://snomed.info/sct", "code": "241541005", "display": "High resolution computed tomography of lungs"}]}, "status": "not-started", "doNotPerform": false}}], "meta": {"tag": [{"system": "http://terminology.hl7.org/CodeSystem/v3-ActReason", "code": "HTEST", "display": "test health data"}]}}}, "careplan-example-GPVisit.json": {"value": {"resourceType": "CarePlan", "id": "gpvisit", "text": {"status": "additional", "div": "<div xmlns=\"http://www.w3.org/1999/xhtml\">\n      <p>  Represents the flow of a patient within a practice. The plan is created when\n        they arrive and represents the 'care' of the patient over the course of that encounter.\n        They first see the nurse for basic observations (BP, pulse, temp) then the doctor for\n        the consultation and finally the nurse again for a tetanus immunization. As the plan is\n        updated (e.g. a new activity added), different versions of the plan exist, and workflow timings\n        for reporting can be gained by examining the plan history. This example is the version after\n        seeing the doctor, and waiting for the nurse.The plan can either be created 'ad hoc' and modified as\n        the parient progresses, or start with a standard template (which can, of course, be altered to suit the patient.</p>\n    </div>"}, "contained": [{"resourceType": "Condition", "id": "p1", "clinicalStatus": {"coding": [{"system": "http://terminology.hl7.org/CodeSystem/condition-clinical", "code": "active"}]}, "verificationStatus": {"coding": [{"system": "http://terminology.hl7.org/CodeSystem/condition-ver-status", "code": "confirmed"}]}, "code": {"text": "Overseas encounter"}, "subject": {"reference": "Patient/100", "display": "Peter James Chalmers"}}, {"resourceType": "CareTeam", "id": "careteam", "participant": [{"id": "part1", "role": [{"coding": [{"system": "http://example.org/local", "code": "nur"}], "text": "nurse"}], "member": {"reference": "Practitioner/13", "display": "Nurse Nancy"}}, {"id": "part2", "role": [{"coding": [{"system": "http://example.org/local", "code": "doc"}], "text": "doctor"}], "member": {"reference": "Practitioner/14", "display": "Doctor Dave"}}]}, {"resourceType": "Goal", "id": "goal", "lifecycleStatus": "planned", "description": {"text": "Complete consultation"}, "subject": {"reference": "Patient/100", "display": "Peter James Chalmers"}}], "status": "active", "intent": "plan", "subject": {"reference": "Patient/100", "display": "Peter James Chalmers"}, "period": {"start": "2013-01-01T10:30:00+00:00"}, "careTeam": [{"reference": "#careteam"}], "addresses": [{"reference": "#p1", "display": "obesity"}], "goal": [{"reference": "#goal"}], "activity": [{"outcomeReference": [{"reference": "Encounter/example"}], "detail": {"kind": "Appointment", "code": {"coding": [{"system": "http://example.org/local", "code": "nursecon"}], "text": "Nurse Consultation"}, "status": "completed", "doNotPerform": false, "scheduledPeriod": {"start": "2013-01-01T10:38:00+00:00", "end": "2013-01-01T10:50:00+00:00"}, "performer": [{"reference": "Practitioner/13", "display": "Nurse Nancy"}]}}, {"detail": {"kind": "Appointment", "code": {"coding": [{"system": "http://example.org/local", "code": "doccon"}], "text": "Doctor Consultation"}, "status": "scheduled", "doNotPerform": false, "performer": [{"reference": "Practitioner/14", "display": "Doctor Dave"}]}}], "meta": {"tag": [{"system": "http://terminology.hl7.org/CodeSystem/v3-ActReason", "code": "HTEST", "display": "test health data"}]}}}, "careplan-example-integrated.json": {"value": {"resourceType": "CarePlan", "id": "integrate", "text": {"status": "generated", "div": "<div xmlns=\"http://www.w3.org/1999/xhtml\">\n      <p>Patient family is not ready to commit to goal setting at this time.  Goal setting will be addressed in the future</p>\n      <table>\n        <thead>\n          <tr>\n            <th>Start Date</th>\n            <th>Goal</th>\n            <th>Action Steps</th>\n            <th>Status</th>\n            <th>Date Last Updated</th>\n            <th>Comments</th>\n          </tr>\n        </thead>\n        <tbody>\n          <tr>\n            <td>10 Sep 2012</td>\n            <td>Eve will lose weight and reduce her GERDS symptoms by improving her diet</td>\n            <td>Eve will review photos of high and low density foods and share with her parents</td>\n            <td>New Goal</td>\n            <td>10 Sep 2012</td>\n            <td>9/10/12 Eve eats one meal a day with her parents</td>\n          </tr>\n          <tr>\n            <td>10 Sep 2012</td>\n            <td>Eve will lose weight and reduce her GERDS symptoms by improving her diet</td>\n            <td>Eve will ask her dad to asist her to put the head of her bed on blocks</td>\n            <td>New Goal</td>\n            <td>10 Sep 2012</td>\n            <td>9/10/12 Eve will sleep in her bed more often than the couch</td>\n          </tr>\n          <tr>\n            <td>10 Sep 2012</td>\n            <td>Eve will improve her GERDS symptoms</td>\n            <td>Eve will reduce her intake of coffee and chocolate</td>\n            <td>In Process</td>\n            <td>10 Sep 2012</td>\n            <td/>\n          </tr>\n          <tr>\n            <td>27 Aug 2012</td>\n            <td>Eve will increase her energy by being more active</td>\n            <td>Eve will walk her friend's dog up and down a big hill 15-30 minutes 3 days a week</td>\n            <td>In Process</td>\n            <td>10 Sep 2012</td>\n            <td>8/27/12 Eve would like to try for 5 days a week.  9/10/12 Eve is still walking the dogs.</td>\n          </tr>\n          <tr>\n            <td>23 Jul 2012</td>\n            <td>Eve will increase her energy by being more active</td>\n            <td>Eve will walk 3 blocks to her parents house twice a week</td>\n            <td>In Process</td>\n            <td>10 Sep 2012</td>\n            <td>8/13/12 Eve walked 4 times the last week.  9/10/12 Eve did not walk to her parents the last week, but has plans to start again</td>\n          </tr>\n          <tr>\n            <td>23 Jul 2012</td>\n            <td>Eve will set up her medications and take as prescribed</td>\n            <td>Eve will us a calendar to check off after medications are taken</td>\n            <td>In Process</td>\n            <td>13 Aug 2012</td>\n            <td/>\n          </tr>\n          <tr>\n            <td>23 Jul 2012</td>\n            <td>Eve will restart her light treatments</td>\n            <td>Eve will use her lights MWF after her shower for 3 minutes</td>\n            <td>In Process</td>\n            <td>27 Aug 2012</td>\n            <td>8/13/12 After restarting the vinegar soaks the psoriasis is improved and Eve plans to treat the remainder with light treatments.  She plans to start this week.  8/27/12 Since her skin is improved Eve has not been using the light treatment as often, maybe once a week.  She would like to increase to 3 times a week again</td>\n          </tr>\n          <tr>\n            <td>10 Jul 2012</td>\n            <td>Eve will set up her medications and take as prescribed</td>\n            <td>Eve will use a calendar of a chart to help her remember when to take her medications</td>\n            <td>In Process</td>\n            <td>10 Sep 2012</td>\n            <td>7/23/12 Eve created a chart as a reminer to take the medications that do not fit in her pill box</td>\n          </tr>\n          <tr>\n            <td>23 Jul 2012</td>\n            <td>Eve will increase her energy by being more active</td>\n            <td>Eve will start using stretch bands and one step 2 days a week Mon/Wed 6-7am and maybe Friday afternoon</td>\n            <td>On-Hold</td>\n            <td>23 Aug 2012</td>\n            <td>7/30/12 will be able to esume exercise.  8/13/12 Eve prefers to focus on walking at this time</td>\n          </tr>\n          <tr>\n            <td>10 Jul 2012</td>\n            <td>Eve will set up her medications and take as prescribed</td>\n            <td>Eve will match a printed medication worksheet with the medication bottles at home</td>\n            <td>Completed</td>\n            <td>23 Jul 2012</td>\n            <td/>\n          </tr>\n          <tr>\n            <td>10 Jul 2012</td>\n            <td>Eve will set up her medications and take as prescribed</td>\n            <td>Eve will get a medication box to sort her pills.  She will have one for scheduled medications and one for as needed</td>\n            <td>Completed</td>\n            <td>16 Jul 2012</td>\n            <td>7/16/12 Eve now has some of her medications set up in pill packs by her pharmacist</td>\n          </tr>\n          <tr>\n            <td>23 Jul 2012</td>\n            <td>Eve will increase her energy by being more active</td>\n            <td>Eve will open &quot;The Firm&quot; DVD workout package and listen to it</td>\n            <td>Discontinued</td>\n            <td>13 Aug 2012</td>\n            <td>7/30/12 Eve will be able to resume exercise on 7/30/12.  8/13/12 -hold until &quot;less busy&quot;</td>\n          </tr>\n        </tbody>\n      </table>\n    </div>"}, "contained": [{"resourceType": "Condition", "id": "p1", "clinicalStatus": {"coding": [{"system": "http://terminology.hl7.org/CodeSystem/condition-clinical", "code": "active"}]}, "verificationStatus": {"coding": [{"system": "http://terminology.hl7.org/CodeSystem/condition-ver-status", "code": "confirmed"}]}, "code": {"text": "GERDS"}, "subject": {"reference": "Patient/1", "display": "Eve Everywoman"}}, {"resourceType": "Condition", "id": "p2", "clinicalStatus": {"coding": [{"system": "http://terminology.hl7.org/CodeSystem/condition-clinical", "code": "active"}]}, "verificationStatus": {"coding": [{"system": "http://terminology.hl7.org/CodeSystem/condition-ver-status", "code": "confirmed"}]}, "code": {"text": "Obesity"}, "subject": {"reference": "Patient/1", "display": "Eve Everywoman"}}, {"resourceType": "Condition", "id": "p3", "clinicalStatus": {"coding": [{"system": "http://terminology.hl7.org/CodeSystem/condition-clinical", "code": "active"}]}, "verificationStatus": {"coding": [{"system": "http://terminology.hl7.org/CodeSystem/condition-ver-status", "code": "confirmed"}]}, "code": {"text": "Psoriasis"}, "subject": {"reference": "Patient/1", "display": "Eve Everywoman"}}, {"resourceType": "Goal", "id": "g1", "lifecycleStatus": "active", "description": {"text": "Eve will lose weight and reduce her GERDS symptoms by improving her diet"}, "subject": {"reference": "Patient/1", "display": "Eve Everywoman"}}, {"resourceType": "Goal", "id": "g2", "lifecycleStatus": "active", "description": {"text": "Eve will improve her GERDS symptoms"}, "subject": {"reference": "Patient/1", "display": "Eve Everywoman"}}, {"resourceType": "Goal", "id": "g3", "lifecycleStatus": "active", "description": {"text": "Eve will increase her energy by being more active"}, "subject": {"reference": "Patient/1", "display": "Eve Everywoman"}}, {"resourceType": "Goal", "id": "g4", "lifecycleStatus": "active", "description": {"text": "Eve will set up her medications and take as prescribed"}, "subject": {"reference": "Patient/1", "display": "Eve Everywoman"}}, {"resourceType": "Goal", "id": "g5", "lifecycleStatus": "active", "description": {"text": "Eve will restart her light treatments"}, "subject": {"reference": "Patient/1", "display": "Eve Everywoman"}}], "status": "active", "intent": "plan", "subject": {"reference": "Patient/1", "display": "Eve Everywoman"}, "addresses": [{"reference": "#p1", "display": "GERDS"}, {"reference": "#p2", "display": "Obesity"}, {"reference": "#p3", "display": "Psoriasis"}], "goal": [{"reference": "#g1"}, {"reference": "#g2"}, {"reference": "#g3"}, {"reference": "#g4"}, {"reference": "#g5"}], "activity": [{"progress": [{"time": "2012-09-10", "text": "Eve eats one meal a day with her parents"}], "detail": {"extension": [{"url": "http://example.org/fhir/StructureDefinition/RevisionDate", "valueDate": "2012-09-10"}], "goal": [{"reference": "#g1"}], "status": "not-started", "doNotPerform": false, "scheduledPeriod": {"start": "2012-09-10"}, "description": "Eve will review photos of high and low density foods and share with her parents"}}, {"progress": [{"time": "2012-09-10", "text": "Eve will sleep in her bed more often than the couch"}], "detail": {"extension": [{"url": "http://example.org/fhir/StructureDefinition/RevisionDate", "valueDate": "2012-09-10"}], "kind": "CommunicationRequest", "goal": [{"reference": "#g1"}], "status": "not-started", "doNotPerform": false, "scheduledPeriod": {"start": "2012-09-10"}, "description": "Eve will ask her dad to asist her to put the head of her bed on blocks"}}, {"detail": {"extension": [{"url": "http://example.org/fhir/StructureDefinition/RevisionDate", "valueDate": "2012-09-10"}], "goal": [{"reference": "#g2"}], "status": "in-progress", "doNotPerform": false, "scheduledPeriod": {"start": "2012-09-10"}, "description": "Eve will reduce her intake of coffee and chocolate"}}, {"progress": [{"time": "2012-08-27", "text": "Eve would like to try for 5 days a week."}, {"time": "2012-09-10", "text": "Eve is still walking the dogs."}], "detail": {"extension": [{"url": "http://example.org/fhir/StructureDefinition/RevisionDate", "valueDate": "2012-09-10"}], "goal": [{"reference": "#g3"}], "status": "in-progress", "doNotPerform": false, "scheduledPeriod": {"start": "2012-08-27"}, "description": "Eve will walk her friend's dog up and down a big hill 15-30 minutes 3 days a week"}}, {"progress": [{"time": "2012-08-13", "text": "Eve walked 4 times the last week."}, {"time": "2012-09-10", "text": "Eve did not walk to her parents the last week, but has plans to start again"}], "detail": {"extension": [{"url": "http://example.org/fhir/StructureDefinition/RevisionDate", "valueDate": "2012-09-10"}], "goal": [{"reference": "#g3"}], "status": "in-progress", "doNotPerform": false, "scheduledPeriod": {"start": "2012-07-23"}, "description": "Eve will walk 3 blocks to her parents house twice a week"}}, {"detail": {"extension": [{"url": "http://example.org/fhir/StructureDefinition/RevisionDate", "valueDate": "2012-08-13"}], "goal": [{"reference": "#g4"}], "status": "in-progress", "doNotPerform": false, "scheduledPeriod": {"start": "2012-07-23"}, "description": "Eve will use a calendar to check off after medications are taken"}}, {"progress": [{"time": "2012-08-13", "text": "After restarting the vinegar soaks the psoriasis is improved and Eve plans to treat the remainder with light treatments.  She plans to start this week."}, {"time": "2012-08-27", "text": "Since her skin is improved Eve has not been using the light treatment as often, maybe once a week.  She would like to increase to 3 times a week again"}], "detail": {"extension": [{"url": "http://example.org/fhir/StructureDefinition/RevisionDate", "valueDate": "2012-08-27"}], "goal": [{"reference": "#g5"}], "status": "in-progress", "doNotPerform": false, "scheduledPeriod": {"start": "2012-07-23"}, "description": "Eve will use her lights MWF after her shower for 3 minutes"}}, {"progress": [{"time": "2012-07-23", "text": "Eve created a chart as a reminer to take the medications that do not fit in her pill box"}], "detail": {"extension": [{"url": "http://example.org/fhir/StructureDefinition/RevisionDate", "valueDate": "2012-09-10"}], "goal": [{"reference": "#g4"}], "status": "in-progress", "doNotPerform": false, "scheduledPeriod": {"start": "2012-07-10"}, "description": "Eve will use a calendar of a chart to help her remember when to take her medications"}}, {"progress": [{"time": "2012-07-30", "text": "Will be able to esume exercise."}, {"time": "2012-08-13", "text": "Eve prefers to focus on walking at this time"}], "detail": {"extension": [{"url": "http://example.org/fhir/StructureDefinition/RevisionDate", "valueDate": "2012-08-23"}], "goal": [{"reference": "#g3"}], "status": "on-hold", "doNotPerform": false, "scheduledPeriod": {"start": "2012-07-23"}, "description": "Eve will start using stretch bands and one step 2 days a week Mon/Wed 6-7am and maybe Friday afternoon"}}, {"detail": {"extension": [{"url": "http://example.org/fhir/StructureDefinition/RevisionDate", "valueDate": "2012-07-23"}], "goal": [{"reference": "#g4"}], "status": "completed", "doNotPerform": false, "scheduledPeriod": {"start": "2012-07-10"}, "description": "Eve will match a printed medication worksheet with the medication bottles at home"}}, {"progress": [{"time": "2012-07-16", "text": "Eve now has some of her medications set up in pill packs by her pharmacist"}], "detail": {"extension": [{"url": "http://example.org/fhir/StructureDefinition/RevisionDate", "valueDate": "2012-07-16"}], "goal": [{"reference": "#g4"}], "status": "completed", "doNotPerform": false, "scheduledPeriod": {"start": "2012-07-10"}, "description": "Eve will get a medication box to sort her pills.  She will have one for scheduled medications and one for as needed"}}, {"progress": [{"time": "2012-07-12", "text": "Eve will be able to resume exercise on 7/30/12"}, {"time": "2012-08-13", "text": "hold until \"less busy\""}], "detail": {"extension": [{"url": "http://example.org/fhir/StructureDefinition/RevisionDate", "valueDate": "2012-08-13"}], "goal": [{"reference": "#g3"}], "status": "on-hold", "doNotPerform": false, "scheduledPeriod": {"start": "2012-07-23"}, "description": "Eve will open \"The Firm\" DVD workout package and listen to it"}}], "note": [{"text": "Patient family is not ready to commit to goal setting at this time.  Goal setting will be addressed in the future"}], "meta": {"tag": [{"system": "http://terminology.hl7.org/CodeSystem/v3-ActReason", "code": "HTEST", "display": "test health data"}]}}}, "careplan-example-obesity-narrative.json": {"value": {"resourceType": "CarePlan", "id": "obesity-narrative", "text": {"status": "additional", "div": "<div xmlns=\"http://www.w3.org/1999/xhtml\">\n      <p> Care plan to address obesity.  Goal is a target weight of 160 to 180 lbs.  Activities include diet and exercise.</p>\n    </div>"}, "status": "active", "intent": "plan", "subject": {"reference": "Patient/example", "display": "Peter James Chalmers"}, "meta": {"tag": [{"system": "http://terminology.hl7.org/CodeSystem/v3-ActReason", "code": "HTEST", "display": "test health data"}]}}}, "careplan-example-pregnancy.json": {"value": {"resourceType": "CarePlan", "id": "preg", "text": {"status": "additional", "div": "<div xmlns=\"http://www.w3.org/1999/xhtml\">\n      <p>A maternity care plan (for a pregnant woman).</p>\n      <p>LMP is 1st Jan, 2013 (a great new years party!) The plan has activities to take prenatal vitamins, schedule first antenatal,\n            and 'placeholders' for the second antenatal and delivery (there would be lots of others of course)</p>\n      <p>Note that where is a proposed 'status' element against each activity</p>\n    </div>"}, "contained": [{"resourceType": "Condition", "id": "p1", "clinicalStatus": {"coding": [{"system": "http://terminology.hl7.org/CodeSystem/condition-clinical", "code": "active"}]}, "verificationStatus": {"coding": [{"system": "http://terminology.hl7.org/CodeSystem/condition-ver-status", "code": "confirmed"}]}, "code": {"text": "pregnancy"}, "subject": {"reference": "Patient/1", "display": "Eve Everywoman"}}, {"resourceType": "Practitioner", "id": "pr1", "name": [{"family": "Midwife", "given": ["Mavis"]}]}, {"resourceType": "Practitioner", "id": "pr2", "name": [{"family": "Obstetrician", "given": ["Oscar"]}]}, {"resourceType": "CareTeam", "id": "careteam", "participant": [{"role": [{"coding": [{"system": "http://example.org/mysys", "code": "lmc"}], "text": "Midwife"}], "member": {"reference": "#pr1", "display": "Mavis Midwife"}}, {"role": [{"coding": [{"system": "http://example.org/mysys", "code": "obs"}], "text": "Obstretitian"}], "member": {"reference": "#pr2", "display": "Oscar Obstetrician"}}]}, {"resourceType": "Goal", "id": "goal", "lifecycleStatus": "active", "description": {"text": "Maintain patient's health throughout pregnancy and ensure a healthy child"}, "subject": {"reference": "Patient/1", "display": "Eve Everywoman"}}], "extension": [{"url": "http://example.org/fhir/StructureDefinition/careplan#lmp", "valueDateTime": "2013-01-01"}], "status": "active", "intent": "plan", "subject": {"reference": "Patient/1", "display": "Eve Everywoman"}, "period": {"start": "2013-01-01", "end": "2013-10-01"}, "careTeam": [{"reference": "#careteam"}], "addresses": [{"reference": "#p1", "display": "pregnancy"}], "goal": [{"reference": "#goal"}], "activity": [{"reference": {"display": "Prenatal vitamin MedicationRequest"}}, {"extension": [{"url": "http://example.org/fhir/StructureDefinition/careplan#andetails", "valueUri": "http://orionhealth.com/fhir/careplan/1andetails"}], "detail": {"kind": "Appointment", "code": {"coding": [{"system": "http://example.org/mySystem", "code": "1an"}], "text": "First Antenatal encounter"}, "status": "scheduled", "doNotPerform": false, "scheduledTiming": {"repeat": {"boundsPeriod": {"start": "2013-02-14", "end": "2013-02-28"}}}, "performer": [{"reference": "#pr1", "display": "Mavis Midwife"}], "description": "The first antenatal encounter. This is where a detailed physical examination is performed.             and the pregnanacy discussed with the mother-to-be."}}, {"detail": {"kind": "Appointment", "code": {"coding": [{"system": "http://example.org/mySystem", "code": "an"}], "text": "Follow-up Antenatal encounter"}, "status": "not-started", "doNotPerform": false, "scheduledTiming": {"repeat": {"boundsPeriod": {"start": "2013-03-01", "end": "2013-03-14"}}}, "performer": [{"reference": "#pr1", "display": "Mavis Midwife"}], "description": "The second antenatal encounter. Discuss any issues that arose from the first antenatal encounter"}}, {"detail": {"kind": "Appointment", "code": {"coding": [{"system": "http://example.org/mySystem", "code": "del"}], "text": "Delivery"}, "status": "not-started", "doNotPerform": false, "scheduledTiming": {"repeat": {"boundsPeriod": {"start": "2013-09-01", "end": "2013-09-14"}}}, "performer": [{"reference": "#pr1", "display": "Mavis Midwife"}], "description": "The delivery."}}], "meta": {"tag": [{"system": "http://terminology.hl7.org/CodeSystem/v3-ActReason", "code": "HTEST", "display": "test health data"}]}}}, "careplan-example.json": {"value": {"resourceType": "CarePlan", "id": "example", "text": {"status": "additional", "div": "<div xmlns=\"http://www.w3.org/1999/xhtml\">\n      <p> A simple care plan to indicate a patient taking their weight once a day because of obesity.</p>\n    </div>"}, "contained": [{"resourceType": "Condition", "id": "p1", "clinicalStatus": {"coding": [{"system": "http://terminology.hl7.org/CodeSystem/condition-clinical", "code": "active"}]}, "verificationStatus": {"coding": [{"system": "http://terminology.hl7.org/CodeSystem/condition-ver-status", "code": "confirmed"}]}, "code": {"text": "Obesity"}, "subject": {"reference": "Patient/example", "display": "Peter James Chalmers"}}], "identifier": [{"value": "12345"}], "instantiatesUri": ["http://example.org/protocol-for-obesity"], "basedOn": [{"display": "Management of Type 2 Diabetes"}], "replaces": [{"display": "Plan from urgent care clinic"}], "partOf": [{"display": "Overall wellness plan"}], "status": "active", "intent": "plan", "category": [{"text": "Weight management plan"}], "description": "Manage obesity and weight loss", "subject": {"reference": "Patient/example", "display": "Peter James Chalmers"}, "encounter": {"reference": "Encounter/home"}, "period": {"end": "2017-06-01"}, "created": "2016-01-01", "author": {"reference": "Practitioner/example", "display": "Dr Adam Careful"}, "careTeam": [{"reference": "CareTeam/example"}], "addresses": [{"reference": "#p1", "display": "obesity"}], "goal": [{"reference": "Goal/example"}], "activity": [{"outcomeCodeableConcept": [{"coding": [{"system": "http://snomed.info/sct", "code": "161832001", "display": "Progressive weight loss"}]}], "outcomeReference": [{"reference": "Observation/example", "display": "Weight Measured"}], "detail": {"code": {"coding": [{"system": "http://loinc.org", "code": "3141-9", "display": "Weight Measured"}, {"system": "http://snomed.info/sct", "code": "27113001", "display": "Body weight"}]}, "status": "completed", "statusReason": {"text": "Achieved weight loss to mitigate diabetes risk."}, "doNotPerform": false, "scheduledTiming": {"repeat": {"frequency": 1, "period": 1, "periodUnit": "d"}}, "location": {"display": "Patient's home"}, "performer": [{"reference": "Patient/example", "display": "Peter James Chalmers"}]}}], "meta": {"tag": [{"system": "http://terminology.hl7.org/CodeSystem/v3-ActReason", "code": "HTEST", "display": "test health data"}]}}}}}}}, "security": [{"ApiKeyAuth": ["user/*.write", "user/*.*"]}]}, "get": {"tags": ["CarePlan"], "parameters": [{"name": "activity-code", "in": "query", "schema": {"type": "string"}, "description": "Detail type of activity"}, {"name": "activity-date", "in": "query", "schema": {"type": "string", "format": "date"}, "description": "Specified date occurs within period specified by CarePlan.activity.detail.scheduled[x]"}, {"name": "activity-reference", "in": "query", "schema": {"type": "string"}, "description": "Activity details defined in specific resource"}, {"name": "based-on", "in": "query", "schema": {"type": "string"}, "description": "Fulfills CarePlan"}, {"name": "care-team", "in": "query", "schema": {"type": "string"}, "description": "Who's involved in plan?"}, {"name": "category", "in": "query", "schema": {"type": "string"}, "description": "Type of plan"}, {"name": "condition", "in": "query", "schema": {"type": "string"}, "description": "Health issues this plan addresses"}, {"name": "date", "in": "query", "schema": {"type": "string", "format": "date"}, "description": "Time period plan covers"}, {"name": "encounter", "in": "query", "schema": {"type": "string"}, "description": "Encounter created as part of"}, {"name": "goal", "in": "query", "schema": {"type": "string"}, "description": "Desired outcome of plan"}, {"name": "identifier", "in": "query", "schema": {"type": "string"}, "description": "External Ids for this plan"}, {"name": "instantiates-canonical", "in": "query", "schema": {"type": "string"}, "description": "Instantiates FHIR protocol or definition"}, {"name": "instantiates-uri", "in": "query", "schema": {"type": "string"}, "description": "Instantiates external protocol or definition"}, {"name": "intent", "in": "query", "schema": {"type": "string"}, "description": "proposal | plan | order | option"}, {"name": "part-of", "in": "query", "schema": {"type": "string"}, "description": "Part of referenced CarePlan"}, {"name": "patient", "in": "query", "schema": {"type": "string"}, "description": "Who the care plan is for"}, {"name": "performer", "in": "query", "schema": {"type": "string"}, "description": "Matches if the practitioner is listed as a performer in any of the \"simple\" activities.  (For performers of the detailed activities, chain through the activitydetail search parameter.)"}, {"name": "replaces", "in": "query", "schema": {"type": "string"}, "description": "CarePlan replaced by this CarePlan"}, {"name": "status", "in": "query", "schema": {"type": "string"}, "description": "draft | active | on-hold | revoked | completed | entered-in-error | unknown"}, {"name": "subject", "in": "query", "schema": {"type": "string"}, "description": "Who the care plan is for"}], "responses": {"200": {"description": "Success", "content": {"application/fhir+json": {"schema": {"$ref": "#/components/schemas/CarePlan"}}}}, "400": {"description": "Invalid"}, "404": {"description": "Not-Found"}, "406": {"description": "Not-Supported"}, "503": {"description": "Operation"}, "401": {"description": "Unauthorized"}, "403": {"description": "Forbidden"}, "415": {"description": "Unsupported-Type"}, "500": {"description": "Internal-Error"}, "502": {"description": "Bad-Gateway"}}, "security": [{"ApiKeyAuth": ["user/*.write", "user/*.*"]}]}}, "/CarePlan/{id}/_history": {"get": {"tags": ["CarePlan"], "parameters": [{"name": "id", "in": "path", "required": true, "schema": {"type": "string"}}, {"name": "_count", "in": "query", "schema": {"type": "string"}}, {"name": "_since", "in": "query", "schema": {"type": "string"}}], "responses": {"200": {"description": "Success", "content": {"application/fhir+json": {"schema": {"type": "array", "items": {"$ref": "#/components/schemas/CarePlan"}}}}}, "400": {"description": "Invalid"}, "404": {"description": "Not-Found"}, "406": {"description": "Not-Supported"}, "503": {"description": "Operation"}, "401": {"description": "Unauthorized"}, "403": {"description": "Forbidden"}, "415": {"description": "Unsupported-Type"}, "500": {"description": "Internal-Error"}, "502": {"description": "Bad-Gateway"}}, "security": [{"ApiKeyAuth": ["user/*.write", "user/*.*"]}]}}, "/CarePlan/{id}/_history/{vid}": {"get": {"tags": ["CarePlan"], "parameters": [{"name": "id", "in": "path", "required": true, "schema": {"type": "string"}}, {"name": "vid", "in": "path", "required": true, "schema": {"type": "string"}}], "responses": {"200": {"description": "Success", "content": {"application/fhir+json": {"schema": {"$ref": "#/components/schemas/CarePlan"}}}}, "400": {"description": "Invalid"}, "404": {"description": "Not-Found"}, "406": {"description": "Not-Supported"}, "503": {"description": "Operation"}, "401": {"description": "Unauthorized"}, "403": {"description": "Forbidden"}, "415": {"description": "Unsupported-Type"}, "500": {"description": "Internal-Error"}, "502": {"description": "Bad-Gateway"}}, "security": [{"ApiKeyAuth": ["user/*.write", "user/*.*"]}]}}, "/CarePlan/{id}": {"parameters": [{"in": "path", "required": true, "name": "id", "schema": {"type": "string"}}], "get": {"tags": ["CarePlan"], "parameters": [], "responses": {"200": {"description": "Success", "content": {"application/fhir+json": {"schema": {"$ref": "#/components/schemas/CarePlan"}}}}, "400": {"description": "Invalid"}, "404": {"description": "Not-Found"}, "406": {"description": "Not-Supported"}, "503": {"description": "Operation"}, "401": {"description": "Unauthorized"}, "403": {"description": "Forbidden"}, "415": {"description": "Unsupported-Type"}, "500": {"description": "Internal-Error"}, "502": {"description": "Bad-Gateway"}}, "security": [{"ApiKeyAuth": ["user/*.write", "user/*.*"]}]}, "put": {"tags": ["CarePlan"], "responses": {"200": {"description": "Success", "content": {}}, "400": {"description": "Invalid"}, "404": {"description": "Not-Found"}, "406": {"description": "Not-Supported"}, "503": {"description": "Operation"}, "401": {"description": "Unauthorized"}, "403": {"description": "Forbidden"}, "415": {"description": "Unsupported-Type"}, "500": {"description": "Internal-Error"}, "502": {"description": "Bad-Gateway"}}, "requestBody": {"content": {"application/fhir+json": {"schema": {"$ref": "#/components/schemas/CarePlan"}}}}, "security": [{"ApiKeyAuth": ["user/*.write", "user/*.*"]}]}, "delete": {"tags": ["CarePlan"], "parameters": [], "responses": {"200": {"description": "Success", "content": {}}, "400": {"description": "Invalid"}, "404": {"description": "Not-Found"}, "406": {"description": "Not-Supported"}, "503": {"description": "Operation"}, "401": {"description": "Unauthorized"}, "403": {"description": "Forbidden"}, "415": {"description": "Unsupported-Type"}, "500": {"description": "Internal-Error"}, "502": {"description": "Bad-Gateway"}}, "security": [{"ApiKeyAuth": ["user/*.write", "user/*.*"]}]}}}, "info": {"description": "Healthcare plan for patient or group", "title": "FHIR R4 CarePlan Resource", "version": "unspecified"}, "tags": [{"name": "CarePlan"}], "openapi": "3.0.1", "servers": [{"url": "http://localhost:52774/csp/healthshare/fhirtest/fhir/r4"}], "components": {"schemas": {"CarePlan": {"description": "Healthcare plan for patient or group", "type": "object", "properties": {"activity": {"type": "array", "items": {"$ref": "#/components/schemas/CarePlan.activity"}, "description": ""}, "addresses": {"type": "array", "items": {"$ref": "#/components/schemas/Reference"}, "description": "Health issues this plan addresses"}, "author": {"type": "object", "allOf": [{"$ref": "#/components/schemas/Reference"}], "description": "Who is the designated responsible party"}, "basedOn": {"type": "array", "items": {"$ref": "#/components/schemas/Reference"}, "description": "A care plan that is fulfilled in whole or in part by this care plan."}, "careTeam": {"type": "array", "items": {"$ref": "#/components/schemas/Reference"}, "description": "Who's involved in plan?"}, "category": {"type": "array", "items": {"$ref": "#/components/schemas/CodeableConcept"}, "description": "Type of plan"}, "contained": {"type": "array", "items": {"$ref": "#/components/schemas/Resource"}, "description": "Contained, inline Resources"}, "contributor": {"type": "array", "items": {"$ref": "#/components/schemas/Reference"}, "description": "Identifies the individual(s) or organization who provided the contents of the care plan."}, "created": {"type": "string", "description": "Date record was first recorded"}, "description": {"type": "string", "description": "A description of the scope and nature of the plan."}, "encounter": {"type": "object", "allOf": [{"$ref": "#/components/schemas/Reference"}], "description": "Encounter created as part of"}, "goal": {"type": "array", "items": {"$ref": "#/components/schemas/Reference"}, "description": "Describes the intended objective(s) of carrying out the care plan."}, "id": {"type": "string", "description": "Logical id of this artifact"}, "identifier": {"type": "array", "items": {"$ref": "#/components/schemas/Identifier"}, "description": "External Ids for this plan"}, "implicitRules": {"type": "string", "description": "A set of rules under which this content was created"}, "instantiatesCanonical": {"type": "string", "description": "Instantiates FHIR protocol or definition"}, "instantiatesUri": {"type": "string", "description": "Instantiates external protocol or definition"}, "intent": {"type": "string", "description": "proposal | plan | order | option"}, "language": {"type": "string", "description": "The base language in which the resource is written."}, "meta": {"type": "object", "allOf": [{"$ref": "#/components/schemas/Meta"}], "description": "Metadata about the resource"}, "note": {"type": "array", "items": {"$ref": "#/components/schemas/Annotation"}, "description": "General notes about the care plan not covered elsewhere."}, "partOf": {"type": "array", "items": {"$ref": "#/components/schemas/Reference"}, "description": "A larger care plan of which this particular care plan is a component or step."}, "period": {"type": "object", "allOf": [{"$ref": "#/components/schemas/Period"}], "description": "Indicates when the plan did (or is intended to) come into effect and end."}, "replaces": {"type": "array", "items": {"$ref": "#/components/schemas/Reference"}, "description": "Completed or terminated care plan whose function is taken by this new care plan."}, "status": {"type": "string", "description": "draft | active | on-hold | revoked | completed | entered-in-error | unknown"}, "subject": {"type": "object", "allOf": [{"$ref": "#/components/schemas/Reference"}], "description": "Identifies the patient or group whose intended care is described by the plan."}, "supportingInfo": {"type": "array", "items": {"$ref": "#/components/schemas/Reference"}, "description": "Information considered as part of plan"}, "text": {"type": "object", "allOf": [{"$ref": "#/components/schemas/Narrative"}], "description": "Text summary of the resource, for human interpretation"}, "title": {"type": "string", "description": "Human-friendly name for the care plan."}}, "required": ["id", "intent", "status", "subject"]}, "CarePlan.activity": {"description": "", "type": "object", "properties": {"detail": {"type": "object", "allOf": [{"$ref": "#/components/schemas/CarePlan.activity.detail"}], "description": "In-line definition of activity"}, "id": {"type": "string", "description": "Unique id for inter-element referencing"}, "outcomeCodeableConcept": {"type": "array", "items": {"$ref": "#/components/schemas/CodeableConcept"}, "description": "Results of the activity"}, "outcomeReference": {"type": "array", "items": {"$ref": "#/components/schemas/Reference"}, "description": "Appointment, Encounter, Procedure, etc."}, "progress": {"type": "array", "items": {"$ref": "#/components/schemas/Annotation"}, "description": "Comments about the activity status/progress"}, "reference": {"type": "object", "allOf": [{"$ref": "#/components/schemas/Reference"}], "description": "Activity details defined in specific resource"}}, "required": ["id"]}, "CarePlan.activity.detail": {"description": "", "type": "object", "properties": {"code": {"type": "object", "allOf": [{"$ref": "#/components/schemas/CodeableConcept"}], "description": "Detail type of activity"}, "dailyAmount": {"type": "object", "allOf": [{"$ref": "#/components/schemas/Quantity"}], "description": "How to consume/day?"}, "description": {"type": "string", "description": "Extra info describing activity to perform"}, "doNotPerform": {"type": "boolean", "description": "If true, activity is prohibiting action"}, "goal": {"type": "array", "items": {"$ref": "#/components/schemas/Reference"}, "description": "Goals this activity relates to"}, "id": {"type": "string", "description": "Unique id for inter-element referencing"}, "instantiatesCanonical": {"type": "string", "description": "Instantiates FHIR protocol or definition"}, "instantiatesUri": {"type": "string", "description": "Instantiates external protocol or definition"}, "kind": {"type": "string", "description": "Appointment | CommunicationRequest | DeviceRequest | MedicationRequest | NutritionOrder | Task | ServiceRequest | VisionPrescription"}, "location": {"type": "object", "allOf": [{"$ref": "#/components/schemas/Reference"}], "description": "Where it should happen"}, "performer": {"type": "array", "items": {"$ref": "#/components/schemas/Reference"}, "description": "Who will be responsible?"}, "product[x]": {"type": "string", "description": "What is to be administered/supplied"}, "productCodeableConcept": {"type": "object", "allOf": [{"$ref": "#/components/schemas/CodeableConcept"}], "description": "UNABLE TO FIND RESOURCE/ELEMENT NAME"}, "productReference": {"type": "object", "allOf": [{"$ref": "#/components/schemas/Reference"}], "description": "UNABLE TO FIND RESOURCE/ELEMENT NAME"}, "quantity": {"type": "object", "allOf": [{"$ref": "#/components/schemas/Quantity"}], "description": "How much to administer/supply/consume"}, "reasonCode": {"type": "array", "items": {"$ref": "#/components/schemas/CodeableConcept"}, "description": "Why activity should be done or why activity was prohibited"}, "reasonReference": {"type": "array", "items": {"$ref": "#/components/schemas/Reference"}, "description": "Why activity is needed"}, "scheduled[x]": {"type": "string", "description": "When activity is to occur"}, "scheduledPeriod": {"type": "object", "allOf": [{"$ref": "#/components/schemas/Period"}], "description": "UNABLE TO FIND RESOURCE/ELEMENT NAME"}, "scheduledString": {"type": "string", "description": "UNABLE TO FIND RESOURCE/ELEMENT NAME"}, "scheduledTiming": {"type": "object", "allOf": [{"$ref": "#/components/schemas/Timing"}], "description": "UNABLE TO FIND RESOURCE/ELEMENT NAME"}, "status": {"type": "string", "description": "not-started | scheduled | in-progress | on-hold | completed | cancelled | stopped | unknown | entered-in-error"}, "statusReason": {"type": "object", "allOf": [{"$ref": "#/components/schemas/CodeableConcept"}], "description": "Reason for current status"}}, "required": ["id", "status"]}, "Reference": {"description": "", "type": "object", "properties": {"display": {"type": "string", "description": "Plain text narrative that identifies the resource in addition to the resource reference."}, "id": {"type": "string", "description": ""}, "identifier": {"type": "object", "allOf": [{"$ref": "#/components/schemas/Identifier"}], "description": "Logical reference, when literal reference is not known"}, "reference": {"type": "string", "description": "Literal reference, Relative, internal or absolute URL"}, "type": {"type": "string", "description": "Type the reference refers to (e.g. \"Patient\")"}}, "required": ["id"]}, "CodeableConcept": {"description": "", "type": "object", "properties": {"coding": {"type": "array", "items": {"$ref": "#/components/schemas/Coding"}, "description": "A reference to a code defined by a terminology system."}, "id": {"type": "string", "description": ""}, "text": {"type": "string", "description": "Plain text representation of the concept"}}, "required": ["id"]}, "Resource": {"description": "Base Resource", "type": "object", "properties": {"id": {"type": "string", "description": "Logical id of this artifact"}, "implicitRules": {"type": "string", "description": "A set of rules under which this content was created"}, "language": {"type": "string", "description": "The base language in which the resource is written."}, "meta": {"type": "object", "allOf": [{"$ref": "#/components/schemas/Meta"}], "description": "Metadata about the resource"}}, "required": ["id"]}, "Extension": {"description": "", "type": "object", "properties": {"id": {"type": "string", "description": ""}, "url": {"type": "string", "description": "Source of the definition for the extension code - a logical name or a URL."}, "value[x]": {"type": "string", "description": "Value of extension"}, "valueAddress": {"type": "object", "allOf": [{"$ref": "#/components/schemas/Address"}], "description": ""}, "valueAge": {"type": "object", "allOf": [{"$ref": "#/components/schemas/Age"}], "description": ""}, "valueAnnotation": {"type": "object", "allOf": [{"$ref": "#/components/schemas/Annotation"}], "description": ""}, "valueAttachment": {"type": "object", "allOf": [{"$ref": "#/components/schemas/Attachment"}], "description": ""}, "valueBase64Binary": {"type": "string", "description": ""}, "valueBoolean": {"type": "boolean", "description": ""}, "valueCanonical": {"type": "string", "description": ""}, "valueCode": {"type": "string", "description": ""}, "valueCodeableConcept": {"type": "object", "allOf": [{"$ref": "#/components/schemas/CodeableConcept"}], "description": ""}, "valueCoding": {"type": "object", "allOf": [{"$ref": "#/components/schemas/Coding"}], "description": ""}, "valueContactDetail": {"type": "object", "allOf": [{"$ref": "#/components/schemas/ContactDetail"}], "description": ""}, "valueContactPoint": {"type": "object", "allOf": [{"$ref": "#/components/schemas/ContactPoint"}], "description": ""}, "valueContributor": {"type": "object", "allOf": [{"$ref": "#/components/schemas/Contributor"}], "description": ""}, "valueCount": {"type": "object", "allOf": [{"$ref": "#/components/schemas/Count"}], "description": ""}, "valueDataRequirement": {"type": "object", "allOf": [{"$ref": "#/components/schemas/DataRequirement"}], "description": ""}, "valueDate": {"type": "string", "description": ""}, "valueDateTime": {"type": "string", "description": ""}, "valueDecimal": {"type": "number", "description": ""}, "valueDistance": {"type": "object", "allOf": [{"$ref": "#/components/schemas/Distance"}], "description": ""}, "valueDosage": {"type": "object", "allOf": [{"$ref": "#/components/schemas/Dosage"}], "description": ""}, "valueDuration": {"type": "object", "allOf": [{"$ref": "#/components/schemas/Duration"}], "description": ""}, "valueExpression": {"type": "object", "allOf": [{"$ref": "#/components/schemas/Expression"}], "description": ""}, "valueHumanName": {"type": "object", "allOf": [{"$ref": "#/components/schemas/HumanName"}], "description": ""}, "valueId": {"type": "string", "description": ""}, "valueIdentifier": {"type": "object", "allOf": [{"$ref": "#/components/schemas/Identifier"}], "description": ""}, "valueInstant": {"type": "string", "description": ""}, "valueInteger": {"type": "number", "description": ""}, "valueMarkdown": {"type": "string", "description": ""}, "valueMeta": {"type": "object", "allOf": [{"$ref": "#/components/schemas/Meta"}], "description": ""}, "valueMoney": {"type": "object", "allOf": [{"$ref": "#/components/schemas/Money"}], "description": ""}, "valueOid": {"type": "string", "description": ""}, "valueParameterDefinition": {"type": "object", "allOf": [{"$ref": "#/components/schemas/ParameterDefinition"}], "description": ""}, "valuePeriod": {"type": "object", "allOf": [{"$ref": "#/components/schemas/Period"}], "description": ""}, "valuePositiveInt": {"type": "number", "description": ""}, "valueQuantity": {"type": "object", "allOf": [{"$ref": "#/components/schemas/Quantity"}], "description": ""}, "valueRange": {"type": "object", "allOf": [{"$ref": "#/components/schemas/Range"}], "description": ""}, "valueRatio": {"type": "object", "allOf": [{"$ref": "#/components/schemas/Ratio"}], "description": ""}, "valueReference": {"type": "object", "allOf": [{"$ref": "#/components/schemas/Reference"}], "description": ""}, "valueRelatedArtifact": {"type": "object", "allOf": [{"$ref": "#/components/schemas/RelatedArtifact"}], "description": ""}, "valueSampledData": {"type": "object", "allOf": [{"$ref": "#/components/schemas/SampledData"}], "description": ""}, "valueSignature": {"type": "object", "allOf": [{"$ref": "#/components/schemas/Signature"}], "description": ""}, "valueString": {"type": "string", "description": ""}, "valueTime": {"type": "string", "description": ""}, "valueTiming": {"type": "object", "allOf": [{"$ref": "#/components/schemas/Timing"}], "description": ""}, "valueTriggerDefinition": {"type": "object", "allOf": [{"$ref": "#/components/schemas/TriggerDefinition"}], "description": ""}, "valueUnsignedInt": {"type": "number", "description": ""}, "valueUri": {"type": "string", "description": ""}, "valueUrl": {"type": "string", "description": ""}, "valueUsageContext": {"type": "object", "allOf": [{"$ref": "#/components/schemas/UsageContext"}], "description": ""}, "valueUuid": {"type": "string", "description": ""}}, "required": ["id", "url"]}, "Identifier": {"description": "", "type": "object", "properties": {"assigner": {"type": "string", "description": "Organization that issued/manages the identifier."}, "id": {"type": "string", "description": ""}, "period": {"type": "object", "allOf": [{"$ref": "#/components/schemas/Period"}], "description": "Time period during which identifier is/was valid for use."}, "system": {"type": "string", "description": "The namespace for the identifier value"}, "type": {"type": "object", "allOf": [{"$ref": "#/components/schemas/CodeableConcept"}], "description": "Description of identifier"}, "use": {"type": "string", "description": "The purpose of this identifier."}, "value": {"type": "string", "description": "The value that is unique"}}, "required": ["id"]}, "Meta": {"description": "", "type": "object", "properties": {"id": {"type": "string", "description": ""}, "lastUpdated": {"type": "string", "description": "When the resource last changed - e.g. when the version changed."}, "profile": {"type": "string", "description": "Profiles this resource claims to conform to"}, "security": {"type": "array", "items": {"$ref": "#/components/schemas/Coding"}, "description": "Security Labels applied to this resource"}, "source": {"type": "string", "description": "Identifies where the resource comes from"}, "tag": {"type": "array", "items": {"$ref": "#/components/schemas/Coding"}, "description": "Tags applied to this resource"}, "versionId": {"type": "string", "description": "Version specific identifier"}}, "required": ["id"]}, "Annotation": {"description": "", "type": "object", "properties": {"author[x]": {"type": "string", "description": "The individual responsible for making the annotation."}, "authorReference": {"type": "object", "allOf": [{"$ref": "#/components/schemas/Reference"}], "description": ""}, "authorString": {"type": "string", "description": ""}, "id": {"type": "string", "description": ""}, "text": {"type": "string", "description": "The text of the annotation in markdown format."}, "time": {"type": "string", "description": "Indicates when this particular annotation was made."}}, "required": ["id", "text"]}, "Period": {"description": "", "type": "object", "properties": {"end": {"type": "string", "description": "End time with inclusive boundary, if not ongoing"}, "id": {"type": "string", "description": ""}, "start": {"type": "string", "description": "The start of the period. The boundary is inclusive."}}, "required": ["id"]}, "Narrative": {"description": "", "type": "object", "properties": {"div": {"description": "The actual narrative content, a stripped down version of XHTML."}, "id": {"type": "string", "description": ""}, "status": {"type": "string", "description": "generated | extensions | additional | empty"}}, "required": ["id", "div", "status"]}, "Coding": {"description": "", "type": "object", "properties": {"code": {"type": "string", "description": "Symbol in syntax defined by the system"}, "display": {"type": "string", "description": "A representation of the meaning of the code in the system, following the rules of the system."}, "id": {"type": "string", "description": ""}, "system": {"type": "string", "description": "The identification of the code system that defines the meaning of the symbol in the code."}, "userSelected": {"type": "boolean", "description": "If this coding was chosen directly by the user"}, "version": {"type": "string", "description": "Version of the system - if relevant"}}, "required": ["id"]}, "Quantity": {"description": "", "type": "object", "properties": {"code": {"type": "string", "description": "A computer processable form of the unit in some unit representation system."}, "comparator": {"type": "string", "description": "< | <= | >= | > - how to understand the value"}, "id": {"type": "string", "description": "Unique id for inter-element referencing"}, "system": {"type": "string", "description": "The identification of the system that provides the coded form of the unit."}, "unit": {"type": "string", "description": "A human-readable form of the unit."}, "value": {"type": "number", "description": "Numerical value (with implicit precision)"}}, "required": ["id"]}, "Timing": {"description": "", "type": "object", "properties": {"code": {"type": "object", "allOf": [{"$ref": "#/components/schemas/CodeableConcept"}], "description": "BID | TID | QID | AM | PM | QD | QOD | +"}, "event": {"type": "string", "description": "Identifies specific times when the event occurs."}, "id": {"type": "string", "description": ""}, "repeat": {"type": "object", "allOf": [{"$ref": "#/components/schemas/Timing.repeat"}], "description": ""}}, "required": ["id"]}}, "securitySchemes": {"ApiKeyAuth": {"type": "apiKey", "in": "header", "name": "X-API-Key"}}}, "security": [{"ApiKeyAuth": ["user/*.write", "user/*.*"]}]}