{"paths": {"/CareTeam/{id}/_history/{vid}": {"get": {"tags": ["CareTeam"], "parameters": [{"name": "id", "in": "path", "required": true, "schema": {"type": "string"}}, {"name": "vid", "in": "path", "required": true, "schema": {"type": "string"}}], "responses": {"200": {"description": "Success", "content": {"application/fhir+json": {"schema": {"$ref": "#/components/schemas/CareTeam"}}}}, "400": {"description": "Invalid"}, "404": {"description": "Not-Found"}, "406": {"description": "Not-Supported"}, "503": {"description": "Operation"}, "401": {"description": "Unauthorized"}, "403": {"description": "Forbidden"}, "415": {"description": "Unsupported-Type"}, "500": {"description": "Internal-Error"}, "502": {"description": "Bad-Gateway"}}, "security": [{"ApiKeyAuth": ["user/*.write", "user/*.*"]}]}}, "/CareTeam/{id}/_history": {"get": {"tags": ["CareTeam"], "parameters": [{"name": "id", "in": "path", "required": true, "schema": {"type": "string"}}, {"name": "_count", "in": "query", "schema": {"type": "string"}}, {"name": "_since", "in": "query", "schema": {"type": "string"}}], "responses": {"200": {"description": "Success", "content": {"application/fhir+json": {"schema": {"type": "array", "items": {"$ref": "#/components/schemas/CareTeam"}}}}}, "400": {"description": "Invalid"}, "404": {"description": "Not-Found"}, "406": {"description": "Not-Supported"}, "503": {"description": "Operation"}, "401": {"description": "Unauthorized"}, "403": {"description": "Forbidden"}, "415": {"description": "Unsupported-Type"}, "500": {"description": "Internal-Error"}, "502": {"description": "Bad-Gateway"}}, "security": [{"ApiKeyAuth": ["user/*.write", "user/*.*"]}]}}, "/CareTeam": {"post": {"tags": ["CareTeam"], "responses": {"200": {"description": "Success", "content": {}}, "400": {"description": "Invalid"}, "404": {"description": "Not-Found"}, "406": {"description": "Not-Supported"}, "503": {"description": "Operation"}, "401": {"description": "Unauthorized"}, "403": {"description": "Forbidden"}, "415": {"description": "Unsupported-Type"}, "500": {"description": "Internal-Error"}, "502": {"description": "Bad-Gateway"}}, "requestBody": {"content": {"application/fhir+json": {"schema": {"$ref": "#/components/schemas/CareTeam"}, "examples": {"careteam-example.json": {"value": {"resourceType": "CareTeam", "id": "example", "text": {"status": "generated", "div": "<div xmlns=\"http://www.w3.org/1999/xhtml\">Care Team</div>"}, "contained": [{"resourceType": "Practitioner", "id": "pr1", "name": [{"family": "Dietician", "given": ["Dorothy"]}]}], "identifier": [{"value": "12345"}], "status": "active", "category": [{"coding": [{"system": "http://loinc.org", "code": "LA27976-2", "display": "Encounter-focused care team"}]}], "name": "Peter James Charlmers Care Plan for Inpatient Encounter", "subject": {"reference": "Patient/example", "display": "Peter James Chalmers"}, "encounter": {"reference": "Encounter/example"}, "period": {"end": "2013-01-01"}, "participant": [{"role": [{"text": "responsiblePerson"}], "member": {"reference": "Patient/example", "display": "Peter James Chalmers"}}, {"role": [{"text": "adviser"}], "member": {"reference": "#pr1", "display": "Dorothy Dietition"}, "onBehalfOf": {"reference": "Organization/f001"}, "period": {"end": "2013-01-01"}}], "managingOrganization": [{"reference": "Organization/f001"}], "meta": {"tag": [{"system": "http://terminology.hl7.org/CodeSystem/v3-ActReason", "code": "HTEST", "display": "test health data"}]}}}}}}}, "security": [{"ApiKeyAuth": ["user/*.write", "user/*.*"]}]}, "get": {"tags": ["CareTeam"], "parameters": [{"name": "category", "in": "query", "schema": {"type": "string"}, "description": "Type of team"}, {"name": "date", "in": "query", "schema": {"type": "string", "format": "date"}, "description": "Time period team covers"}, {"name": "encounter", "in": "query", "schema": {"type": "string"}, "description": "Encounter created as part of"}, {"name": "identifier", "in": "query", "schema": {"type": "string"}, "description": "External Ids for this team"}, {"name": "participant", "in": "query", "schema": {"type": "string"}, "description": "Who is involved"}, {"name": "patient", "in": "query", "schema": {"type": "string"}, "description": "Who care team is for"}, {"name": "status", "in": "query", "schema": {"type": "string"}, "description": "proposed | active | suspended | inactive | entered-in-error"}, {"name": "subject", "in": "query", "schema": {"type": "string"}, "description": "Who care team is for"}], "responses": {"200": {"description": "Success", "content": {"application/fhir+json": {"schema": {"$ref": "#/components/schemas/CareTeam"}}}}, "400": {"description": "Invalid"}, "404": {"description": "Not-Found"}, "406": {"description": "Not-Supported"}, "503": {"description": "Operation"}, "401": {"description": "Unauthorized"}, "403": {"description": "Forbidden"}, "415": {"description": "Unsupported-Type"}, "500": {"description": "Internal-Error"}, "502": {"description": "Bad-Gateway"}}, "security": [{"ApiKeyAuth": ["user/*.write", "user/*.*"]}]}}, "/CareTeam/{id}": {"parameters": [{"in": "path", "required": true, "name": "id", "schema": {"type": "string"}}], "get": {"tags": ["CareTeam"], "parameters": [], "responses": {"200": {"description": "Success", "content": {"application/fhir+json": {"schema": {"$ref": "#/components/schemas/CareTeam"}}}}, "400": {"description": "Invalid"}, "404": {"description": "Not-Found"}, "406": {"description": "Not-Supported"}, "503": {"description": "Operation"}, "401": {"description": "Unauthorized"}, "403": {"description": "Forbidden"}, "415": {"description": "Unsupported-Type"}, "500": {"description": "Internal-Error"}, "502": {"description": "Bad-Gateway"}}, "security": [{"ApiKeyAuth": ["user/*.write", "user/*.*"]}]}, "put": {"tags": ["CareTeam"], "responses": {"200": {"description": "Success", "content": {}}, "400": {"description": "Invalid"}, "404": {"description": "Not-Found"}, "406": {"description": "Not-Supported"}, "503": {"description": "Operation"}, "401": {"description": "Unauthorized"}, "403": {"description": "Forbidden"}, "415": {"description": "Unsupported-Type"}, "500": {"description": "Internal-Error"}, "502": {"description": "Bad-Gateway"}}, "requestBody": {"content": {"application/fhir+json": {"schema": {"$ref": "#/components/schemas/CareTeam"}}}}, "security": [{"ApiKeyAuth": ["user/*.write", "user/*.*"]}]}, "delete": {"tags": ["CareTeam"], "parameters": [], "responses": {"200": {"description": "Success", "content": {}}, "400": {"description": "Invalid"}, "404": {"description": "Not-Found"}, "406": {"description": "Not-Supported"}, "503": {"description": "Operation"}, "401": {"description": "Unauthorized"}, "403": {"description": "Forbidden"}, "415": {"description": "Unsupported-Type"}, "500": {"description": "Internal-Error"}, "502": {"description": "Bad-Gateway"}}, "security": [{"ApiKeyAuth": ["user/*.write", "user/*.*"]}]}}}, "info": {"description": "Planned participants in the coordination and delivery of care for a patient or group", "title": "FHIR R4 CareTeam Resource", "version": "unspecified"}, "tags": [{"name": "CareTeam"}], "openapi": "3.0.1", "servers": [{"url": "http://localhost:52774/csp/healthshare/fhirtest/fhir/r4"}], "components": {"schemas": {"CareTeam": {"description": "Planned participants in the coordination and delivery of care for a patient or group", "type": "object", "properties": {"category": {"type": "array", "items": {"$ref": "#/components/schemas/CodeableConcept"}, "description": "Type of team"}, "contained": {"type": "array", "items": {"$ref": "#/components/schemas/Resource"}, "description": "Contained, inline Resources"}, "encounter": {"type": "object", "allOf": [{"$ref": "#/components/schemas/Reference"}], "description": "Encounter created as part of"}, "id": {"type": "string", "description": "Logical id of this artifact"}, "identifier": {"type": "array", "items": {"$ref": "#/components/schemas/Identifier"}, "description": "External Ids for this team"}, "implicitRules": {"type": "string", "description": "A set of rules under which this content was created"}, "language": {"type": "string", "description": "The base language in which the resource is written."}, "managingOrganization": {"type": "array", "items": {"$ref": "#/components/schemas/Reference"}, "description": "The organization responsible for the care team."}, "meta": {"type": "object", "allOf": [{"$ref": "#/components/schemas/Meta"}], "description": "Metadata about the resource"}, "name": {"type": "string", "description": "A label for human use intended to distinguish like teams.  E.g. the \"red\" vs. \"green\" trauma teams."}, "note": {"type": "array", "items": {"$ref": "#/components/schemas/Annotation"}, "description": "Comments made about the CareTeam."}, "participant": {"type": "array", "items": {"$ref": "#/components/schemas/CareTeam.participant"}, "description": ""}, "period": {"type": "object", "allOf": [{"$ref": "#/components/schemas/Period"}], "description": "Indicates when the team did (or is intended to) come into effect and end."}, "reasonCode": {"type": "array", "items": {"$ref": "#/components/schemas/CodeableConcept"}, "description": "Describes why the care team exists."}, "reasonReference": {"type": "array", "items": {"$ref": "#/components/schemas/Reference"}, "description": "Condition(s) that this care team addresses."}, "status": {"type": "string", "description": "Indicates the current state of the care team."}, "subject": {"type": "object", "allOf": [{"$ref": "#/components/schemas/Reference"}], "description": "Identifies the patient or group whose intended care is handled by the team."}, "telecom": {"type": "array", "items": {"$ref": "#/components/schemas/ContactPoint"}, "description": "A central contact detail for the care team (that applies to all members)."}, "text": {"type": "object", "allOf": [{"$ref": "#/components/schemas/Narrative"}], "description": "Text summary of the resource, for human interpretation"}}, "required": ["id"]}, "CareTeam.participant": {"description": "", "type": "object", "properties": {"id": {"type": "string", "description": "Unique id for inter-element referencing"}, "member": {"type": "object", "allOf": [{"$ref": "#/components/schemas/Reference"}], "description": "Who is involved"}, "onBehalfOf": {"type": "object", "allOf": [{"$ref": "#/components/schemas/Reference"}], "description": "Organization of the practitioner"}, "period": {"type": "object", "allOf": [{"$ref": "#/components/schemas/Period"}], "description": "Time period of participant"}, "role": {"type": "array", "items": {"$ref": "#/components/schemas/CodeableConcept"}, "description": "Type of involvement"}}, "required": ["id"]}, "CodeableConcept": {"description": "", "type": "object", "properties": {"coding": {"type": "array", "items": {"$ref": "#/components/schemas/Coding"}, "description": "A reference to a code defined by a terminology system."}, "id": {"type": "string", "description": ""}, "text": {"type": "string", "description": "Plain text representation of the concept"}}, "required": ["id"]}, "Resource": {"description": "Base Resource", "type": "object", "properties": {"id": {"type": "string", "description": "Logical id of this artifact"}, "implicitRules": {"type": "string", "description": "A set of rules under which this content was created"}, "language": {"type": "string", "description": "The base language in which the resource is written."}, "meta": {"type": "object", "allOf": [{"$ref": "#/components/schemas/Meta"}], "description": "Metadata about the resource"}}, "required": ["id"]}, "Reference": {"description": "", "type": "object", "properties": {"display": {"type": "string", "description": "Plain text narrative that identifies the resource in addition to the resource reference."}, "id": {"type": "string", "description": ""}, "identifier": {"type": "object", "allOf": [{"$ref": "#/components/schemas/Identifier"}], "description": "Logical reference, when literal reference is not known"}, "reference": {"type": "string", "description": "Literal reference, Relative, internal or absolute URL"}, "type": {"type": "string", "description": "Type the reference refers to (e.g. \"Patient\")"}}, "required": ["id"]}, "Extension": {"description": "", "type": "object", "properties": {"id": {"type": "string", "description": ""}, "url": {"type": "string", "description": "Source of the definition for the extension code - a logical name or a URL."}, "value[x]": {"type": "string", "description": "Value of extension"}, "valueAddress": {"type": "object", "allOf": [{"$ref": "#/components/schemas/Address"}], "description": ""}, "valueAge": {"type": "object", "allOf": [{"$ref": "#/components/schemas/Age"}], "description": ""}, "valueAnnotation": {"type": "object", "allOf": [{"$ref": "#/components/schemas/Annotation"}], "description": ""}, "valueAttachment": {"type": "object", "allOf": [{"$ref": "#/components/schemas/Attachment"}], "description": ""}, "valueBase64Binary": {"type": "string", "description": ""}, "valueBoolean": {"type": "boolean", "description": ""}, "valueCanonical": {"type": "string", "description": ""}, "valueCode": {"type": "string", "description": ""}, "valueCodeableConcept": {"type": "object", "allOf": [{"$ref": "#/components/schemas/CodeableConcept"}], "description": ""}, "valueCoding": {"type": "object", "allOf": [{"$ref": "#/components/schemas/Coding"}], "description": ""}, "valueContactDetail": {"type": "object", "allOf": [{"$ref": "#/components/schemas/ContactDetail"}], "description": ""}, "valueContactPoint": {"type": "object", "allOf": [{"$ref": "#/components/schemas/ContactPoint"}], "description": ""}, "valueContributor": {"type": "object", "allOf": [{"$ref": "#/components/schemas/Contributor"}], "description": ""}, "valueCount": {"type": "object", "allOf": [{"$ref": "#/components/schemas/Count"}], "description": ""}, "valueDataRequirement": {"type": "object", "allOf": [{"$ref": "#/components/schemas/DataRequirement"}], "description": ""}, "valueDate": {"type": "string", "description": ""}, "valueDateTime": {"type": "string", "description": ""}, "valueDecimal": {"type": "number", "description": ""}, "valueDistance": {"type": "object", "allOf": [{"$ref": "#/components/schemas/Distance"}], "description": ""}, "valueDosage": {"type": "object", "allOf": [{"$ref": "#/components/schemas/Dosage"}], "description": ""}, "valueDuration": {"type": "object", "allOf": [{"$ref": "#/components/schemas/Duration"}], "description": ""}, "valueExpression": {"type": "object", "allOf": [{"$ref": "#/components/schemas/Expression"}], "description": ""}, "valueHumanName": {"type": "object", "allOf": [{"$ref": "#/components/schemas/HumanName"}], "description": ""}, "valueId": {"type": "string", "description": ""}, "valueIdentifier": {"type": "object", "allOf": [{"$ref": "#/components/schemas/Identifier"}], "description": ""}, "valueInstant": {"type": "string", "description": ""}, "valueInteger": {"type": "number", "description": ""}, "valueMarkdown": {"type": "string", "description": ""}, "valueMeta": {"type": "object", "allOf": [{"$ref": "#/components/schemas/Meta"}], "description": ""}, "valueMoney": {"type": "object", "allOf": [{"$ref": "#/components/schemas/Money"}], "description": ""}, "valueOid": {"type": "string", "description": ""}, "valueParameterDefinition": {"type": "object", "allOf": [{"$ref": "#/components/schemas/ParameterDefinition"}], "description": ""}, "valuePeriod": {"type": "object", "allOf": [{"$ref": "#/components/schemas/Period"}], "description": ""}, "valuePositiveInt": {"type": "number", "description": ""}, "valueQuantity": {"type": "object", "allOf": [{"$ref": "#/components/schemas/Quantity"}], "description": ""}, "valueRange": {"type": "object", "allOf": [{"$ref": "#/components/schemas/Range"}], "description": ""}, "valueRatio": {"type": "object", "allOf": [{"$ref": "#/components/schemas/Ratio"}], "description": ""}, "valueReference": {"type": "object", "allOf": [{"$ref": "#/components/schemas/Reference"}], "description": ""}, "valueRelatedArtifact": {"type": "object", "allOf": [{"$ref": "#/components/schemas/RelatedArtifact"}], "description": ""}, "valueSampledData": {"type": "object", "allOf": [{"$ref": "#/components/schemas/SampledData"}], "description": ""}, "valueSignature": {"type": "object", "allOf": [{"$ref": "#/components/schemas/Signature"}], "description": ""}, "valueString": {"type": "string", "description": ""}, "valueTime": {"type": "string", "description": ""}, "valueTiming": {"type": "object", "allOf": [{"$ref": "#/components/schemas/Timing"}], "description": ""}, "valueTriggerDefinition": {"type": "object", "allOf": [{"$ref": "#/components/schemas/TriggerDefinition"}], "description": ""}, "valueUnsignedInt": {"type": "number", "description": ""}, "valueUri": {"type": "string", "description": ""}, "valueUrl": {"type": "string", "description": ""}, "valueUsageContext": {"type": "object", "allOf": [{"$ref": "#/components/schemas/UsageContext"}], "description": ""}, "valueUuid": {"type": "string", "description": ""}}, "required": ["id", "url"]}, "Identifier": {"description": "", "type": "object", "properties": {"assigner": {"type": "string", "description": "Organization that issued/manages the identifier."}, "id": {"type": "string", "description": ""}, "period": {"type": "object", "allOf": [{"$ref": "#/components/schemas/Period"}], "description": "Time period during which identifier is/was valid for use."}, "system": {"type": "string", "description": "The namespace for the identifier value"}, "type": {"type": "object", "allOf": [{"$ref": "#/components/schemas/CodeableConcept"}], "description": "Description of identifier"}, "use": {"type": "string", "description": "The purpose of this identifier."}, "value": {"type": "string", "description": "The value that is unique"}}, "required": ["id"]}, "Meta": {"description": "", "type": "object", "properties": {"id": {"type": "string", "description": ""}, "lastUpdated": {"type": "string", "description": "When the resource last changed - e.g. when the version changed."}, "profile": {"type": "string", "description": "Profiles this resource claims to conform to"}, "security": {"type": "array", "items": {"$ref": "#/components/schemas/Coding"}, "description": "Security Labels applied to this resource"}, "source": {"type": "string", "description": "Identifies where the resource comes from"}, "tag": {"type": "array", "items": {"$ref": "#/components/schemas/Coding"}, "description": "Tags applied to this resource"}, "versionId": {"type": "string", "description": "Version specific identifier"}}, "required": ["id"]}, "Annotation": {"description": "", "type": "object", "properties": {"author[x]": {"type": "string", "description": "The individual responsible for making the annotation."}, "authorReference": {"type": "object", "allOf": [{"$ref": "#/components/schemas/Reference"}], "description": ""}, "authorString": {"type": "string", "description": ""}, "id": {"type": "string", "description": ""}, "text": {"type": "string", "description": "The text of the annotation in markdown format."}, "time": {"type": "string", "description": "Indicates when this particular annotation was made."}}, "required": ["id", "text"]}, "Period": {"description": "", "type": "object", "properties": {"end": {"type": "string", "description": "End time with inclusive boundary, if not ongoing"}, "id": {"type": "string", "description": ""}, "start": {"type": "string", "description": "The start of the period. The boundary is inclusive."}}, "required": ["id"]}, "ContactPoint": {"description": "", "type": "object", "properties": {"id": {"type": "string", "description": ""}, "period": {"type": "object", "allOf": [{"$ref": "#/components/schemas/Period"}], "description": "Time period when the contact point was/is in use."}, "rank": {"type": "number", "description": "Specify preferred order of use (1 = highest)"}, "system": {"type": "string", "description": "phone | fax | email | pager | url | sms | other"}, "use": {"type": "string", "description": "Identifies the purpose for the contact point."}, "value": {"type": "string", "description": "The actual contact point details"}}, "required": ["id"]}, "Narrative": {"description": "", "type": "object", "properties": {"div": {"description": "The actual narrative content, a stripped down version of XHTML."}, "id": {"type": "string", "description": ""}, "status": {"type": "string", "description": "generated | extensions | additional | empty"}}, "required": ["id", "div", "status"]}, "Coding": {"description": "", "type": "object", "properties": {"code": {"type": "string", "description": "Symbol in syntax defined by the system"}, "display": {"type": "string", "description": "A representation of the meaning of the code in the system, following the rules of the system."}, "id": {"type": "string", "description": ""}, "system": {"type": "string", "description": "The identification of the code system that defines the meaning of the symbol in the code."}, "userSelected": {"type": "boolean", "description": "If this coding was chosen directly by the user"}, "version": {"type": "string", "description": "Version of the system - if relevant"}}, "required": ["id"]}}, "securitySchemes": {"ApiKeyAuth": {"type": "apiKey", "in": "header", "name": "X-API-Key"}}}, "security": [{"ApiKeyAuth": ["user/*.write", "user/*.*"]}]}