{"paths": {"/DocumentReference/{id}/_history/{vid}": {"get": {"tags": ["DocumentReference"], "parameters": [{"name": "id", "in": "path", "required": true, "schema": {"type": "string"}}, {"name": "vid", "in": "path", "required": true, "schema": {"type": "string"}}], "responses": {"200": {"description": "Success", "content": {"application/fhir+json": {"schema": {"$ref": "#/components/schemas/DocumentReference"}}}}, "400": {"description": "Invalid"}, "404": {"description": "Not-Found"}, "406": {"description": "Not-Supported"}, "503": {"description": "Operation"}, "401": {"description": "Unauthorized"}, "403": {"description": "Forbidden"}, "415": {"description": "Unsupported-Type"}, "500": {"description": "Internal-Error"}, "502": {"description": "Bad-Gateway"}}, "security": [{"ApiKeyAuth": ["user/*.write", "user/*.*"]}]}}, "/DocumentReference/{id}/_history": {"get": {"tags": ["DocumentReference"], "parameters": [{"name": "id", "in": "path", "required": true, "schema": {"type": "string"}}, {"name": "_count", "in": "query", "schema": {"type": "string"}}, {"name": "_since", "in": "query", "schema": {"type": "string"}}], "responses": {"200": {"description": "Success", "content": {"application/fhir+json": {"schema": {"type": "array", "items": {"$ref": "#/components/schemas/DocumentReference"}}}}}, "400": {"description": "Invalid"}, "404": {"description": "Not-Found"}, "406": {"description": "Not-Supported"}, "503": {"description": "Operation"}, "401": {"description": "Unauthorized"}, "403": {"description": "Forbidden"}, "415": {"description": "Unsupported-Type"}, "500": {"description": "Internal-Error"}, "502": {"description": "Bad-Gateway"}}, "security": [{"ApiKeyAuth": ["user/*.write", "user/*.*"]}]}}, "/DocumentReference/{id}": {"parameters": [{"in": "path", "required": true, "name": "id", "schema": {"type": "string"}}], "get": {"tags": ["DocumentReference"], "parameters": [], "responses": {"200": {"description": "Success", "content": {"application/fhir+json": {"schema": {"$ref": "#/components/schemas/DocumentReference"}}}}, "400": {"description": "Invalid"}, "404": {"description": "Not-Found"}, "406": {"description": "Not-Supported"}, "503": {"description": "Operation"}, "401": {"description": "Unauthorized"}, "403": {"description": "Forbidden"}, "415": {"description": "Unsupported-Type"}, "500": {"description": "Internal-Error"}, "502": {"description": "Bad-Gateway"}}, "security": [{"ApiKeyAuth": ["user/*.write", "user/*.*"]}]}, "put": {"tags": ["DocumentReference"], "responses": {"200": {"description": "Success", "content": {}}, "400": {"description": "Invalid"}, "404": {"description": "Not-Found"}, "406": {"description": "Not-Supported"}, "503": {"description": "Operation"}, "401": {"description": "Unauthorized"}, "403": {"description": "Forbidden"}, "415": {"description": "Unsupported-Type"}, "500": {"description": "Internal-Error"}, "502": {"description": "Bad-Gateway"}}, "requestBody": {"content": {"application/fhir+json": {"schema": {"$ref": "#/components/schemas/DocumentReference"}}}}, "security": [{"ApiKeyAuth": ["user/*.write", "user/*.*"]}]}, "delete": {"tags": ["DocumentReference"], "parameters": [], "responses": {"200": {"description": "Success", "content": {}}, "400": {"description": "Invalid"}, "404": {"description": "Not-Found"}, "406": {"description": "Not-Supported"}, "503": {"description": "Operation"}, "401": {"description": "Unauthorized"}, "403": {"description": "Forbidden"}, "415": {"description": "Unsupported-Type"}, "500": {"description": "Internal-Error"}, "502": {"description": "Bad-Gateway"}}, "security": [{"ApiKeyAuth": ["user/*.write", "user/*.*"]}]}}, "/DocumentReference": {"post": {"tags": ["DocumentReference"], "responses": {"200": {"description": "Success", "content": {}}, "400": {"description": "Invalid"}, "404": {"description": "Not-Found"}, "406": {"description": "Not-Supported"}, "503": {"description": "Operation"}, "401": {"description": "Unauthorized"}, "403": {"description": "Forbidden"}, "415": {"description": "Unsupported-Type"}, "500": {"description": "Internal-Error"}, "502": {"description": "Bad-Gateway"}}, "requestBody": {"content": {"application/fhir+json": {"schema": {"$ref": "#/components/schemas/DocumentReference"}, "examples": {"documentreference-example.json": {"value": {"resourceType": "DocumentReference", "id": "example", "text": {"status": "generated", "div": "<div xmlns=\"http://www.w3.org/1999/xhtml\"><p><b>Generated Narrative with Details</b></p><p><b>id</b>: example</p><p><b>contained</b>: </p><p><b>masterIdentifier</b>: urn:oid:1.3.6.1.4.1.21367.2005.3.7</p><p><b>identifier</b>: urn:oid:1.3.6.1.4.1.21367.2005.3.7.1234</p><p><b>status</b>: current</p><p><b>docStatus</b>: preliminary</p><p><b>type</b>: Outpatient Note <span>(Details : {LOINC code '34108-1' = 'Outpatient Note', given as 'Outpatient Note'})</span></p><p><b>category</b>: History and Physical <span>(Details : {http://ihe.net/xds/connectathon/classCodes code 'History and Physical' = 'History and Physical', given as 'History and Physical'})</span></p><p><b>subject</b>: <a>Patient/xcda</a></p><p><b>date</b>: 24/12/2005 9:43:41 AM</p><p><b>author</b>: </p><ul><li><a>Practitioner/xcda1</a></li><li>id: a2; Gerald Smitty </li></ul><p><b>authenticator</b>: <a>Organization/f001</a></p><p><b>custodian</b>: <a>Organization/f001</a></p><h3>RelatesTos</h3><table><tr><td>-</td><td><b>Code</b></td><td><b>Target</b></td></tr><tr><td>*</td><td>appends</td><td><a>DocumentReference/example</a></td></tr></table><p><b>description</b>: Physical</p><p><b>securityLabel</b>: very restricted <span>(Details : {http://terminology.hl7.org/CodeSystem/v3-Confidentiality code 'V' = 'very restricted', given as 'very restricted'})</span></p><h3>Contents</h3><table><tr><td>-</td><td><b>Attachment</b></td><td><b>Format</b></td></tr><tr><td>*</td><td/><td>History and Physical Specification (Details: urn:oid:1.3.6.1.4.1.19376.1.2.3 code urn:ihe:pcc:handp:2008 = 'urn:ihe:pcc:handp:2008', stated as 'History and Physical Specification')</td></tr></table><h3>Contexts</h3><table><tr><td>-</td><td><b>Encounter</b></td><td><b>Event</b></td><td><b>Period</b></td><td><b>FacilityType</b></td><td><b>PracticeSetting</b></td><td><b>SourcePatientInfo</b></td><td><b>Related</b></td></tr><tr><td>*</td><td><a>Encounter/xcda</a></td><td>Arm <span>(Details : {http://ihe.net/xds/connectathon/eventCodes code 'T-D8200' = 'T-D8200', given as 'Arm'})</span></td><td>23/12/2004 8:00:00 AM --&gt; 23/12/2004 8:01:00 AM</td><td>Outpatient <span>(Details : {http://www.ihe.net/xds/connectathon/healthcareFacilityTypeCodes code 'Outpatient' = 'Outpatient', given as 'Outpatient'})</span></td><td>General Medicine <span>(Details : {http://www.ihe.net/xds/connectathon/practiceSettingCodes code 'General Medicine' = 'General Medicine', given as 'General Medicine'})</span></td><td><a>Patient/xcda</a></td><td><a>Patient/xcda</a></td></tr></table></div>"}, "contained": [{"resourceType": "Practitioner", "id": "a2", "name": [{"family": "Smitty", "given": ["Gerald"]}]}], "masterIdentifier": {"system": "urn:ietf:rfc:3986", "value": "urn:oid:1.3.6.1.4.1.21367.2005.3.7"}, "identifier": [{"system": "urn:ietf:rfc:3986", "value": "urn:oid:1.3.6.1.4.1.21367.2005.3.7.1234"}], "status": "current", "docStatus": "preliminary", "type": {"coding": [{"system": "http://loinc.org", "code": "34108-1", "display": "Outpatient Note"}]}, "category": [{"coding": [{"system": "http://ihe.net/xds/connectathon/classCodes", "code": "History and Physical", "display": "History and Physical"}]}], "subject": {"reference": "Patient/xcda"}, "date": "2005-12-24T09:43:41+11:00", "author": [{"reference": "Practitioner/xcda1"}, {"reference": "#a2"}], "authenticator": {"reference": "Organization/f001"}, "custodian": {"reference": "Organization/f001"}, "relatesTo": [{"code": "appends", "target": {"reference": "DocumentReference/example"}}], "description": "Physical", "securityLabel": [{"coding": [{"system": "http://terminology.hl7.org/CodeSystem/v3-Confidentiality", "code": "V", "display": "very restricted"}]}], "content": [{"attachment": {"contentType": "application/hl7-v3+xml", "language": "en-US", "url": "http://example.org/xds/mhd/Binary/07a6483f-732b-461e-86b6-edb665c45510", "size": 3654, "hash": "2jmj7l5rSw0yVb/vlWAYkK/YBwk=", "title": "Physical", "creation": "2005-12-24T09:35:00+11:00"}, "format": {"system": "urn:oid:1.3.6.1.4.1.19376.1.2.3", "code": "urn:ihe:pcc:handp:2008", "display": "History and Physical Specification"}}], "context": {"encounter": [{"reference": "Encounter/xcda"}], "event": [{"coding": [{"system": "http://ihe.net/xds/connectathon/eventCodes", "code": "T-D8200", "display": "Arm"}]}], "period": {"start": "2004-12-23T08:00:00+11:00", "end": "2004-12-23T08:01:00+11:00"}, "facilityType": {"coding": [{"system": "http://www.ihe.net/xds/connectathon/healthcareFacilityTypeCodes", "code": "Outpatient", "display": "Outpatient"}]}, "practiceSetting": {"coding": [{"system": "http://www.ihe.net/xds/connectathon/practiceSettingCodes", "code": "General Medicine", "display": "General Medicine"}]}, "sourcePatientInfo": {"reference": "Patient/xcda"}, "related": [{"reference": "Patient/xcda", "identifier": {"system": "urn:ietf:rfc:3986", "value": "urn:oid:1.3.6.1.4.1.21367.2005.3.7.2345"}}]}, "meta": {"tag": [{"system": "http://terminology.hl7.org/CodeSystem/v3-ActReason", "code": "HTEST", "display": "test health data"}]}}}}}}}, "security": [{"ApiKeyAuth": ["user/*.write", "user/*.*"]}]}, "get": {"tags": ["DocumentReference"], "parameters": [{"name": "authenticator", "in": "query", "schema": {"type": "string"}, "description": "Who/what authenticated the document"}, {"name": "author", "in": "query", "schema": {"type": "string"}, "description": "Who and/or what authored the document"}, {"name": "category", "in": "query", "schema": {"type": "string"}, "description": "Categorization of document"}, {"name": "contenttype", "in": "query", "schema": {"type": "string"}, "description": "Mime type of the content, with charset etc."}, {"name": "custodian", "in": "query", "schema": {"type": "string"}, "description": "Organization which maintains the document"}, {"name": "date", "in": "query", "schema": {"type": "string", "format": "date"}, "description": "When this document reference was created"}, {"name": "description", "in": "query", "schema": {"type": "string"}, "description": "Human-readable description"}, {"name": "encounter", "in": "query", "schema": {"type": "string"}, "description": "Context of the document  content"}, {"name": "event", "in": "query", "schema": {"type": "string"}, "description": "Main clinical acts documented"}, {"name": "facility", "in": "query", "schema": {"type": "string"}, "description": "Kind of facility where patient was seen"}, {"name": "format", "in": "query", "schema": {"type": "string"}, "description": "Format/content rules for the document"}, {"name": "identifier", "in": "query", "schema": {"type": "string"}, "description": "Master Version Specific Identifier"}, {"name": "language", "in": "query", "schema": {"type": "string"}, "description": "Human language of the content (BCP-47)"}, {"name": "location", "in": "query", "schema": {"type": "string"}, "description": "Uri where the data can be found"}, {"name": "patient", "in": "query", "schema": {"type": "string"}, "description": "Who/what is the subject of the document"}, {"name": "period", "in": "query", "schema": {"type": "string", "format": "date"}, "description": "Time of service that is being documented"}, {"name": "related", "in": "query", "schema": {"type": "string"}, "description": "Related identifiers or resources"}, {"name": "relatesto", "in": "query", "schema": {"type": "string"}, "description": "Target of the relationship"}, {"name": "relation", "in": "query", "schema": {"type": "string"}, "description": "replaces | transforms | signs | appends"}, {"name": "security-label", "in": "query", "schema": {"type": "string"}, "description": "Document security-tags"}, {"name": "setting", "in": "query", "schema": {"type": "string"}, "description": "Additional details about where the content was created (e.g. clinical specialty)"}, {"name": "status", "in": "query", "schema": {"type": "string"}, "description": "current | superseded | entered-in-error"}, {"name": "subject", "in": "query", "schema": {"type": "string"}, "description": "Who/what is the subject of the document"}, {"name": "type", "in": "query", "schema": {"type": "string"}, "description": "Kind of document (LOINC if possible)"}], "responses": {"200": {"description": "Success", "content": {"application/fhir+json": {"schema": {"$ref": "#/components/schemas/DocumentReference"}}}}, "400": {"description": "Invalid"}, "404": {"description": "Not-Found"}, "406": {"description": "Not-Supported"}, "503": {"description": "Operation"}, "401": {"description": "Unauthorized"}, "403": {"description": "Forbidden"}, "415": {"description": "Unsupported-Type"}, "500": {"description": "Internal-Error"}, "502": {"description": "Bad-Gateway"}}, "security": [{"ApiKeyAuth": ["user/*.write", "user/*.*"]}]}}}, "info": {"description": "A reference to a document", "title": "FHIR R4 DocumentReference Resource", "version": "unspecified"}, "tags": [{"name": "DocumentReference"}], "openapi": "3.0.1", "servers": [{"url": "http://localhost:52774/csp/healthshare/fhirtest/fhir/r4"}], "components": {"schemas": {"DocumentReference": {"description": "A reference to a document", "type": "object", "properties": {"authenticator": {"type": "object", "allOf": [{"$ref": "#/components/schemas/Reference"}], "description": "Which person or organization authenticates that this document is valid."}, "author": {"type": "array", "items": {"$ref": "#/components/schemas/Reference"}, "description": "Identifies who is responsible for adding the information to the document."}, "category": {"type": "array", "items": {"$ref": "#/components/schemas/CodeableConcept"}, "description": "Categorization of document"}, "contained": {"type": "array", "items": {"$ref": "#/components/schemas/Resource"}, "description": "Contained, inline Resources"}, "content": {"type": "array", "items": {"$ref": "#/components/schemas/DocumentReference.content"}, "description": ""}, "context": {"type": "object", "allOf": [{"$ref": "#/components/schemas/DocumentReference.context"}], "description": ""}, "custodian": {"type": "object", "allOf": [{"$ref": "#/components/schemas/Reference"}], "description": "Organization which maintains the document"}, "date": {"type": "string", "description": "When the document reference was created."}, "description": {"type": "string", "description": "Human-readable description of the source document."}, "docStatus": {"type": "string", "description": "The status of the underlying document."}, "id": {"type": "string", "description": "Logical id of this artifact"}, "identifier": {"type": "array", "items": {"$ref": "#/components/schemas/Identifier"}, "description": "Other identifiers associated with the document, including version independent identifiers."}, "implicitRules": {"type": "string", "description": "A set of rules under which this content was created"}, "language": {"type": "string", "description": "The base language in which the resource is written."}, "masterIdentifier": {"type": "object", "allOf": [{"$ref": "#/components/schemas/Identifier"}], "description": "Master Version Specific Identifier"}, "meta": {"type": "object", "allOf": [{"$ref": "#/components/schemas/Meta"}], "description": "Metadata about the resource"}, "relatesTo": {"type": "array", "items": {"$ref": "#/components/schemas/DocumentReference.relatesTo"}, "description": ""}, "securityLabel": {"type": "array", "items": {"$ref": "#/components/schemas/CodeableConcept"}, "description": "Document security-tags"}, "status": {"type": "string", "description": "The status of this document reference."}, "subject": {"type": "object", "allOf": [{"$ref": "#/components/schemas/Reference"}], "description": "Who/what is the subject of the document"}, "text": {"type": "object", "allOf": [{"$ref": "#/components/schemas/Narrative"}], "description": "Text summary of the resource, for human interpretation"}, "type": {"type": "object", "allOf": [{"$ref": "#/components/schemas/CodeableConcept"}], "description": "Kind of document (LOINC if possible)"}}, "required": ["id", "content", "status"]}, "DocumentReference.content": {"description": "", "type": "object", "properties": {"attachment": {"type": "object", "allOf": [{"$ref": "#/components/schemas/Attachment"}], "description": "Where to access the document"}, "format": {"type": "object", "allOf": [{"$ref": "#/components/schemas/Coding"}], "description": "Format/content rules for the document"}, "id": {"type": "string", "description": "Unique id for inter-element referencing"}}, "required": ["id", "attachment"]}, "DocumentReference.context": {"description": "", "type": "object", "properties": {"encounter": {"type": "array", "items": {"$ref": "#/components/schemas/Reference"}, "description": "Context of the document  content"}, "event": {"type": "array", "items": {"$ref": "#/components/schemas/CodeableConcept"}, "description": "Main clinical acts documented"}, "facilityType": {"type": "object", "allOf": [{"$ref": "#/components/schemas/CodeableConcept"}], "description": "Kind of facility where patient was seen"}, "id": {"type": "string", "description": "Unique id for inter-element referencing"}, "period": {"type": "object", "allOf": [{"$ref": "#/components/schemas/Period"}], "description": "Time of service that is being documented"}, "practiceSetting": {"type": "object", "allOf": [{"$ref": "#/components/schemas/CodeableConcept"}], "description": "Additional details about where the content was created (e.g. clinical specialty)"}, "related": {"type": "array", "items": {"$ref": "#/components/schemas/Reference"}, "description": "Related identifiers or resources"}, "sourcePatientInfo": {"type": "object", "allOf": [{"$ref": "#/components/schemas/Reference"}], "description": "Patient demographics from source"}}, "required": ["id"]}, "DocumentReference.relatesTo": {"description": "", "type": "object", "properties": {"code": {"type": "string", "description": "replaces | transforms | signs | appends"}, "id": {"type": "string", "description": "Unique id for inter-element referencing"}, "target": {"type": "object", "allOf": [{"$ref": "#/components/schemas/Reference"}], "description": "Target of the relationship"}}, "required": ["id", "code", "target"]}, "Reference": {"description": "", "type": "object", "properties": {"display": {"type": "string", "description": "Plain text narrative that identifies the resource in addition to the resource reference."}, "id": {"type": "string", "description": ""}, "identifier": {"type": "object", "allOf": [{"$ref": "#/components/schemas/Identifier"}], "description": "Logical reference, when literal reference is not known"}, "reference": {"type": "string", "description": "Literal reference, Relative, internal or absolute URL"}, "type": {"type": "string", "description": "Type the reference refers to (e.g. \"Patient\")"}}, "required": ["id"]}, "CodeableConcept": {"description": "", "type": "object", "properties": {"coding": {"type": "array", "items": {"$ref": "#/components/schemas/Coding"}, "description": "A reference to a code defined by a terminology system."}, "id": {"type": "string", "description": ""}, "text": {"type": "string", "description": "Plain text representation of the concept"}}, "required": ["id"]}, "Resource": {"description": "Base Resource", "type": "object", "properties": {"id": {"type": "string", "description": "Logical id of this artifact"}, "implicitRules": {"type": "string", "description": "A set of rules under which this content was created"}, "language": {"type": "string", "description": "The base language in which the resource is written."}, "meta": {"type": "object", "allOf": [{"$ref": "#/components/schemas/Meta"}], "description": "Metadata about the resource"}}, "required": ["id"]}, "Extension": {"description": "", "type": "object", "properties": {"id": {"type": "string", "description": ""}, "url": {"type": "string", "description": "Source of the definition for the extension code - a logical name or a URL."}, "value[x]": {"type": "string", "description": "Value of extension"}, "valueAddress": {"type": "object", "allOf": [{"$ref": "#/components/schemas/Address"}], "description": ""}, "valueAge": {"type": "object", "allOf": [{"$ref": "#/components/schemas/Age"}], "description": ""}, "valueAnnotation": {"type": "object", "allOf": [{"$ref": "#/components/schemas/Annotation"}], "description": ""}, "valueAttachment": {"type": "object", "allOf": [{"$ref": "#/components/schemas/Attachment"}], "description": ""}, "valueBase64Binary": {"type": "string", "description": ""}, "valueBoolean": {"type": "boolean", "description": ""}, "valueCanonical": {"type": "string", "description": ""}, "valueCode": {"type": "string", "description": ""}, "valueCodeableConcept": {"type": "object", "allOf": [{"$ref": "#/components/schemas/CodeableConcept"}], "description": ""}, "valueCoding": {"type": "object", "allOf": [{"$ref": "#/components/schemas/Coding"}], "description": ""}, "valueContactDetail": {"type": "object", "allOf": [{"$ref": "#/components/schemas/ContactDetail"}], "description": ""}, "valueContactPoint": {"type": "object", "allOf": [{"$ref": "#/components/schemas/ContactPoint"}], "description": ""}, "valueContributor": {"type": "object", "allOf": [{"$ref": "#/components/schemas/Contributor"}], "description": ""}, "valueCount": {"type": "object", "allOf": [{"$ref": "#/components/schemas/Count"}], "description": ""}, "valueDataRequirement": {"type": "object", "allOf": [{"$ref": "#/components/schemas/DataRequirement"}], "description": ""}, "valueDate": {"type": "string", "description": ""}, "valueDateTime": {"type": "string", "description": ""}, "valueDecimal": {"type": "number", "description": ""}, "valueDistance": {"type": "object", "allOf": [{"$ref": "#/components/schemas/Distance"}], "description": ""}, "valueDosage": {"type": "object", "allOf": [{"$ref": "#/components/schemas/Dosage"}], "description": ""}, "valueDuration": {"type": "object", "allOf": [{"$ref": "#/components/schemas/Duration"}], "description": ""}, "valueExpression": {"type": "object", "allOf": [{"$ref": "#/components/schemas/Expression"}], "description": ""}, "valueHumanName": {"type": "object", "allOf": [{"$ref": "#/components/schemas/HumanName"}], "description": ""}, "valueId": {"type": "string", "description": ""}, "valueIdentifier": {"type": "object", "allOf": [{"$ref": "#/components/schemas/Identifier"}], "description": ""}, "valueInstant": {"type": "string", "description": ""}, "valueInteger": {"type": "number", "description": ""}, "valueMarkdown": {"type": "string", "description": ""}, "valueMeta": {"type": "object", "allOf": [{"$ref": "#/components/schemas/Meta"}], "description": ""}, "valueMoney": {"type": "object", "allOf": [{"$ref": "#/components/schemas/Money"}], "description": ""}, "valueOid": {"type": "string", "description": ""}, "valueParameterDefinition": {"type": "object", "allOf": [{"$ref": "#/components/schemas/ParameterDefinition"}], "description": ""}, "valuePeriod": {"type": "object", "allOf": [{"$ref": "#/components/schemas/Period"}], "description": ""}, "valuePositiveInt": {"type": "number", "description": ""}, "valueQuantity": {"type": "object", "allOf": [{"$ref": "#/components/schemas/Quantity"}], "description": ""}, "valueRange": {"type": "object", "allOf": [{"$ref": "#/components/schemas/Range"}], "description": ""}, "valueRatio": {"type": "object", "allOf": [{"$ref": "#/components/schemas/Ratio"}], "description": ""}, "valueReference": {"type": "object", "allOf": [{"$ref": "#/components/schemas/Reference"}], "description": ""}, "valueRelatedArtifact": {"type": "object", "allOf": [{"$ref": "#/components/schemas/RelatedArtifact"}], "description": ""}, "valueSampledData": {"type": "object", "allOf": [{"$ref": "#/components/schemas/SampledData"}], "description": ""}, "valueSignature": {"type": "object", "allOf": [{"$ref": "#/components/schemas/Signature"}], "description": ""}, "valueString": {"type": "string", "description": ""}, "valueTime": {"type": "string", "description": ""}, "valueTiming": {"type": "object", "allOf": [{"$ref": "#/components/schemas/Timing"}], "description": ""}, "valueTriggerDefinition": {"type": "object", "allOf": [{"$ref": "#/components/schemas/TriggerDefinition"}], "description": ""}, "valueUnsignedInt": {"type": "number", "description": ""}, "valueUri": {"type": "string", "description": ""}, "valueUrl": {"type": "string", "description": ""}, "valueUsageContext": {"type": "object", "allOf": [{"$ref": "#/components/schemas/UsageContext"}], "description": ""}, "valueUuid": {"type": "string", "description": ""}}, "required": ["id", "url"]}, "Identifier": {"description": "", "type": "object", "properties": {"assigner": {"type": "string", "description": "Organization that issued/manages the identifier."}, "id": {"type": "string", "description": ""}, "period": {"type": "object", "allOf": [{"$ref": "#/components/schemas/Period"}], "description": "Time period during which identifier is/was valid for use."}, "system": {"type": "string", "description": "The namespace for the identifier value"}, "type": {"type": "object", "allOf": [{"$ref": "#/components/schemas/CodeableConcept"}], "description": "Description of identifier"}, "use": {"type": "string", "description": "The purpose of this identifier."}, "value": {"type": "string", "description": "The value that is unique"}}, "required": ["id"]}, "Meta": {"description": "", "type": "object", "properties": {"id": {"type": "string", "description": ""}, "lastUpdated": {"type": "string", "description": "When the resource last changed - e.g. when the version changed."}, "profile": {"type": "string", "description": "Profiles this resource claims to conform to"}, "security": {"type": "array", "items": {"$ref": "#/components/schemas/Coding"}, "description": "Security Labels applied to this resource"}, "source": {"type": "string", "description": "Identifies where the resource comes from"}, "tag": {"type": "array", "items": {"$ref": "#/components/schemas/Coding"}, "description": "Tags applied to this resource"}, "versionId": {"type": "string", "description": "Version specific identifier"}}, "required": ["id"]}, "Narrative": {"description": "", "type": "object", "properties": {"div": {"description": "The actual narrative content, a stripped down version of XHTML."}, "id": {"type": "string", "description": ""}, "status": {"type": "string", "description": "generated | extensions | additional | empty"}}, "required": ["id", "div", "status"]}, "Coding": {"description": "", "type": "object", "properties": {"code": {"type": "string", "description": "Symbol in syntax defined by the system"}, "display": {"type": "string", "description": "A representation of the meaning of the code in the system, following the rules of the system."}, "id": {"type": "string", "description": ""}, "system": {"type": "string", "description": "The identification of the code system that defines the meaning of the symbol in the code."}, "userSelected": {"type": "boolean", "description": "If this coding was chosen directly by the user"}, "version": {"type": "string", "description": "Version of the system - if relevant"}}, "required": ["id"]}, "Period": {"description": "", "type": "object", "properties": {"end": {"type": "string", "description": "End time with inclusive boundary, if not ongoing"}, "id": {"type": "string", "description": ""}, "start": {"type": "string", "description": "The start of the period. The boundary is inclusive."}}, "required": ["id"]}, "Attachment": {"description": "", "type": "object", "properties": {"contentType": {"type": "string", "description": "Mime type of the content, with charset etc."}, "creation": {"type": "string", "description": "The date that the attachment was first created."}, "data": {"type": "string", "description": "The actual data of the attachment - a sequence of bytes, base64 encoded."}, "hash": {"type": "string", "description": "The calculated hash of the data using SHA-1. Represented using base64."}, "id": {"type": "string", "description": ""}, "language": {"type": "string", "description": "The human language of the content. The value can be any valid value according to BCP 47."}, "size": {"type": "number", "description": "The number of bytes of data that make up this attachment (before base64 encoding, if that is done)."}, "title": {"type": "string", "description": "A label or set of text to display in place of the data."}, "url": {"type": "string", "description": "A location where the data can be accessed."}}, "required": ["id"]}}, "securitySchemes": {"ApiKeyAuth": {"type": "apiKey", "in": "header", "name": "X-API-Key"}}}, "security": [{"ApiKeyAuth": ["user/*.write", "user/*.*"]}]}