{"paths": {"/RequestGroup/{id}/_history/{vid}": {"get": {"tags": ["RequestGroup"], "parameters": [{"name": "id", "in": "path", "required": true, "schema": {"type": "string"}}, {"name": "vid", "in": "path", "required": true, "schema": {"type": "string"}}], "responses": {"200": {"description": "Success", "content": {"application/fhir+json": {"schema": {"$ref": "#/components/schemas/RequestGroup"}}}}, "400": {"description": "Invalid"}, "404": {"description": "Not-Found"}, "406": {"description": "Not-Supported"}, "503": {"description": "Operation"}, "401": {"description": "Unauthorized"}, "403": {"description": "Forbidden"}, "415": {"description": "Unsupported-Type"}, "500": {"description": "Internal-Error"}, "502": {"description": "Bad-Gateway"}}, "security": [{"ApiKeyAuth": ["user/*.write", "user/*.*"]}]}}, "/RequestGroup": {"post": {"tags": ["RequestGroup"], "responses": {"200": {"description": "Success", "content": {}}, "400": {"description": "Invalid"}, "404": {"description": "Not-Found"}, "406": {"description": "Not-Supported"}, "503": {"description": "Operation"}, "401": {"description": "Unauthorized"}, "403": {"description": "Forbidden"}, "415": {"description": "Unsupported-Type"}, "500": {"description": "Internal-Error"}, "502": {"description": "Bad-Gateway"}}, "requestBody": {"content": {"application/fhir+json": {"schema": {"$ref": "#/components/schemas/RequestGroup"}, "examples": {"requestgroup-example.json": {"value": {"resourceType": "RequestGroup", "id": "example", "text": {"status": "generated", "div": "<div xmlns=\"http://www.w3.org/1999/xhtml\">Example RequestGroup illustrating related actions to administer medications in sequence with time delay.</div>"}, "contained": [{"resourceType": "MedicationRequest", "id": "medicationrequest-1", "status": "unknown", "intent": "proposal", "medicationCodeableConcept": {"text": "Medication 1"}, "subject": {"reference": "Patient/example"}}, {"resourceType": "MedicationRequest", "id": "medicationrequest-2", "status": "unknown", "intent": "proposal", "medicationCodeableConcept": {"text": "Medication 2"}, "subject": {"reference": "Patient/example"}}], "identifier": [{"value": "requestgroup-1"}], "groupIdentifier": {"system": "http://example.org/treatment-group", "value": "00001"}, "status": "draft", "intent": "plan", "priority": "routine", "subject": {"reference": "Patient/example"}, "encounter": {"reference": "Encounter/example"}, "authoredOn": "2017-03-06T17:31:00Z", "author": {"reference": "Practitioner/1"}, "reasonCode": [{"text": "Treatment"}], "note": [{"text": "Additional notes about the request group"}], "action": [{"prefix": "1", "title": "Administer Medications", "description": "Administer medications at the appropriate time", "textEquivalent": "Administer medication 1, followed an hour later by medication 2", "timingDateTime": "2017-03-06T19:00:00Z", "participant": [{"reference": "Practitioner/1"}], "groupingBehavior": "logical-group", "selectionBehavior": "all", "requiredBehavior": "must", "precheckBehavior": "yes", "cardinalityBehavior": "single", "action": [{"id": "medication-action-1", "description": "Administer medication 1", "type": {"coding": [{"code": "create"}]}, "resource": {"reference": "#medicationrequest-1"}}, {"id": "medication-action-2", "description": "Administer medication 2", "relatedAction": [{"actionId": "medication-action-1", "relationship": "after-end", "offsetDuration": {"value": 1, "unit": "h"}}], "type": {"coding": [{"code": "create"}]}, "resource": {"reference": "#medicationrequest-2"}}]}], "meta": {"tag": [{"system": "http://terminology.hl7.org/CodeSystem/v3-ActReason", "code": "HTEST", "display": "test health data"}]}}}}}}}, "security": [{"ApiKeyAuth": ["user/*.write", "user/*.*"]}]}, "get": {"tags": ["RequestGroup"], "parameters": [{"name": "author", "in": "query", "schema": {"type": "string"}, "description": "The author of the request group"}, {"name": "authored", "in": "query", "schema": {"type": "string", "format": "date"}, "description": "The date the request group was authored"}, {"name": "code", "in": "query", "schema": {"type": "string"}, "description": "The code of the request group"}, {"name": "encounter", "in": "query", "schema": {"type": "string"}, "description": "The encounter the request group applies to"}, {"name": "group-identifier", "in": "query", "schema": {"type": "string"}, "description": "The group identifier for the request group"}, {"name": "identifier", "in": "query", "schema": {"type": "string"}, "description": "External identifiers for the request group"}, {"name": "instantiates-canonical", "in": "query", "schema": {"type": "string"}, "description": "The FHIR-based definition from which the request group is realized"}, {"name": "instantiates-uri", "in": "query", "schema": {"type": "string"}, "description": "The external definition from which the request group is realized"}, {"name": "intent", "in": "query", "schema": {"type": "string"}, "description": "The intent of the request group"}, {"name": "participant", "in": "query", "schema": {"type": "string"}, "description": "The participant in the requests in the group"}, {"name": "patient", "in": "query", "schema": {"type": "string"}, "description": "The identity of a patient to search for request groups"}, {"name": "priority", "in": "query", "schema": {"type": "string"}, "description": "The priority of the request group"}, {"name": "status", "in": "query", "schema": {"type": "string"}, "description": "The status of the request group"}, {"name": "subject", "in": "query", "schema": {"type": "string"}, "description": "The subject that the request group is about"}], "responses": {"200": {"description": "Success", "content": {"application/fhir+json": {"schema": {"$ref": "#/components/schemas/RequestGroup"}}}}, "400": {"description": "Invalid"}, "404": {"description": "Not-Found"}, "406": {"description": "Not-Supported"}, "503": {"description": "Operation"}, "401": {"description": "Unauthorized"}, "403": {"description": "Forbidden"}, "415": {"description": "Unsupported-Type"}, "500": {"description": "Internal-Error"}, "502": {"description": "Bad-Gateway"}}, "security": [{"ApiKeyAuth": ["user/*.write", "user/*.*"]}]}}, "/RequestGroup/{id}": {"parameters": [{"in": "path", "required": true, "name": "id", "schema": {"type": "string"}}], "get": {"tags": ["RequestGroup"], "parameters": [], "responses": {"200": {"description": "Success", "content": {"application/fhir+json": {"schema": {"$ref": "#/components/schemas/RequestGroup"}}}}, "400": {"description": "Invalid"}, "404": {"description": "Not-Found"}, "406": {"description": "Not-Supported"}, "503": {"description": "Operation"}, "401": {"description": "Unauthorized"}, "403": {"description": "Forbidden"}, "415": {"description": "Unsupported-Type"}, "500": {"description": "Internal-Error"}, "502": {"description": "Bad-Gateway"}}, "security": [{"ApiKeyAuth": ["user/*.write", "user/*.*"]}]}, "put": {"tags": ["RequestGroup"], "responses": {"200": {"description": "Success", "content": {}}, "400": {"description": "Invalid"}, "404": {"description": "Not-Found"}, "406": {"description": "Not-Supported"}, "503": {"description": "Operation"}, "401": {"description": "Unauthorized"}, "403": {"description": "Forbidden"}, "415": {"description": "Unsupported-Type"}, "500": {"description": "Internal-Error"}, "502": {"description": "Bad-Gateway"}}, "requestBody": {"content": {"application/fhir+json": {"schema": {"$ref": "#/components/schemas/RequestGroup"}}}}, "security": [{"ApiKeyAuth": ["user/*.write", "user/*.*"]}]}, "delete": {"tags": ["RequestGroup"], "parameters": [], "responses": {"200": {"description": "Success", "content": {}}, "400": {"description": "Invalid"}, "404": {"description": "Not-Found"}, "406": {"description": "Not-Supported"}, "503": {"description": "Operation"}, "401": {"description": "Unauthorized"}, "403": {"description": "Forbidden"}, "415": {"description": "Unsupported-Type"}, "500": {"description": "Internal-Error"}, "502": {"description": "Bad-Gateway"}}, "security": [{"ApiKeyAuth": ["user/*.write", "user/*.*"]}]}}, "/RequestGroup/{id}/_history": {"get": {"tags": ["RequestGroup"], "parameters": [{"name": "id", "in": "path", "required": true, "schema": {"type": "string"}}, {"name": "_count", "in": "query", "schema": {"type": "string"}}, {"name": "_since", "in": "query", "schema": {"type": "string"}}], "responses": {"200": {"description": "Success", "content": {"application/fhir+json": {"schema": {"type": "array", "items": {"$ref": "#/components/schemas/RequestGroup"}}}}}, "400": {"description": "Invalid"}, "404": {"description": "Not-Found"}, "406": {"description": "Not-Supported"}, "503": {"description": "Operation"}, "401": {"description": "Unauthorized"}, "403": {"description": "Forbidden"}, "415": {"description": "Unsupported-Type"}, "500": {"description": "Internal-Error"}, "502": {"description": "Bad-Gateway"}}, "security": [{"ApiKeyAuth": ["user/*.write", "user/*.*"]}]}}}, "info": {"description": "A group of related requests", "title": "FHIR R4 RequestGroup Resource", "version": "unspecified"}, "tags": [{"name": "RequestGroup"}], "openapi": "3.0.1", "servers": [{"url": "http://localhost:52774/csp/healthshare/fhirtest/fhir/r4"}], "components": {"schemas": {"RequestGroup": {"description": "A group of related requests", "type": "object", "properties": {"action": {"type": "array", "items": {"$ref": "#/components/schemas/RequestGroup.action"}, "description": ""}, "author": {"type": "object", "allOf": [{"$ref": "#/components/schemas/Reference"}], "description": "Provides a reference to the author of the request group."}, "authoredOn": {"type": "string", "description": "Indicates when the request group was created."}, "basedOn": {"type": "array", "items": {"$ref": "#/components/schemas/Reference"}, "description": "A plan, proposal or order that is fulfilled in whole or in part by this request."}, "code": {"type": "object", "allOf": [{"$ref": "#/components/schemas/CodeableConcept"}], "description": "A code that identifies what the overall request group is."}, "contained": {"type": "array", "items": {"$ref": "#/components/schemas/Resource"}, "description": "Contained, inline Resources"}, "encounter": {"type": "object", "allOf": [{"$ref": "#/components/schemas/Reference"}], "description": "Describes the context of the request group, if any."}, "groupIdentifier": {"type": "object", "allOf": [{"$ref": "#/components/schemas/Identifier"}], "description": "Composite request this is part of"}, "id": {"type": "string", "description": "Logical id of this artifact"}, "identifier": {"type": "array", "items": {"$ref": "#/components/schemas/Identifier"}, "description": "Allows a service to provide a unique, business identifier for the request."}, "implicitRules": {"type": "string", "description": "A set of rules under which this content was created"}, "instantiatesCanonical": {"type": "string", "description": "Instantiates FHIR protocol or definition"}, "instantiatesUri": {"type": "string", "description": "Instantiates external protocol or definition"}, "intent": {"type": "string", "description": "proposal | plan | directive | order | original-order | reflex-order | filler-order | instance-order | option"}, "language": {"type": "string", "description": "The base language in which the resource is written."}, "meta": {"type": "object", "allOf": [{"$ref": "#/components/schemas/Meta"}], "description": "Metadata about the resource"}, "note": {"type": "array", "items": {"$ref": "#/components/schemas/Annotation"}, "description": "Provides a mechanism to communicate additional information about the response."}, "priority": {"type": "string", "description": "Indicates how quickly the request should be addressed with respect to other requests."}, "reasonCode": {"type": "array", "items": {"$ref": "#/components/schemas/CodeableConcept"}, "description": "Describes the reason for the request group in coded or textual form."}, "reasonReference": {"type": "array", "items": {"$ref": "#/components/schemas/Reference"}, "description": "Indicates another resource whose existence justifies this request group."}, "replaces": {"type": "array", "items": {"$ref": "#/components/schemas/Reference"}, "description": "Completed or terminated request(s) whose function is taken by this new request."}, "status": {"type": "string", "description": "draft | active | on-hold | revoked | completed | entered-in-error | unknown"}, "subject": {"type": "object", "allOf": [{"$ref": "#/components/schemas/Reference"}], "description": "The subject for which the request group was created."}, "text": {"type": "object", "allOf": [{"$ref": "#/components/schemas/Narrative"}], "description": "Text summary of the resource, for human interpretation"}}, "required": ["id", "intent", "status"]}, "RequestGroup.action": {"description": "", "type": "object", "properties": {"action": {"type": "array", "items": {"$ref": "#/components/schemas/RequestGroup.action"}, "description": "Sub action"}, "cardinalityBehavior": {"type": "string", "description": "single | multiple"}, "code": {"type": "array", "items": {"$ref": "#/components/schemas/CodeableConcept"}, "description": "Code representing the meaning of the action or sub-actions"}, "condition": {"type": "array", "items": {"$ref": "#/components/schemas/RequestGroup.action.condition"}, "description": "Whether or not the action is applicable"}, "description": {"type": "string", "description": "Short description of the action"}, "documentation": {"type": "array", "items": {"$ref": "#/components/schemas/RelatedArtifact"}, "description": "Supporting documentation for the intended performer of the action"}, "groupingBehavior": {"type": "string", "description": "visual-group | logical-group | sentence-group"}, "id": {"type": "string", "description": "Unique id for inter-element referencing"}, "participant": {"type": "array", "items": {"$ref": "#/components/schemas/Reference"}, "description": "Who should perform the action"}, "precheckBehavior": {"type": "string", "description": "yes | no"}, "prefix": {"type": "string", "description": "User-visible prefix for the action (e.g. 1. or A.)"}, "priority": {"type": "string", "description": "routine | urgent | asap | stat"}, "relatedAction": {"type": "array", "items": {"$ref": "#/components/schemas/RequestGroup.action.relatedAction"}, "description": "Relationship to another action"}, "requiredBehavior": {"type": "string", "description": "must | could | must-unless-documented"}, "resource": {"type": "object", "allOf": [{"$ref": "#/components/schemas/Reference"}], "description": "The target of the action"}, "selectionBehavior": {"type": "string", "description": "any | all | all-or-none | exactly-one | at-most-one | one-or-more"}, "textEquivalent": {"type": "string", "description": "Static text equivalent of the action, used if the dynamic aspects cannot be interpreted by the receiving system"}, "timing[x]": {"type": "string", "description": "When the action should take place"}, "timingAge": {"type": "object", "allOf": [{"$ref": "#/components/schemas/Age"}], "description": "UNABLE TO FIND RESOURCE/ELEMENT NAME"}, "timingDateTime": {"type": "string", "description": "UNABLE TO FIND RESOURCE/ELEMENT NAME"}, "timingDuration": {"type": "object", "allOf": [{"$ref": "#/components/schemas/Duration"}], "description": "UNABLE TO FIND RESOURCE/ELEMENT NAME"}, "timingPeriod": {"type": "object", "allOf": [{"$ref": "#/components/schemas/Period"}], "description": "UNABLE TO FIND RESOURCE/ELEMENT NAME"}, "timingRange": {"type": "object", "allOf": [{"$ref": "#/components/schemas/Range"}], "description": "UNABLE TO FIND RESOURCE/ELEMENT NAME"}, "timingTiming": {"type": "object", "allOf": [{"$ref": "#/components/schemas/Timing"}], "description": "UNABLE TO FIND RESOURCE/ELEMENT NAME"}, "title": {"type": "string", "description": "User-visible title"}, "type": {"type": "object", "allOf": [{"$ref": "#/components/schemas/CodeableConcept"}], "description": "create | update | remove | fire-event"}}, "required": ["id"]}, "RequestGroup.action.condition": {"description": "", "type": "object", "properties": {"expression": {"type": "object", "allOf": [{"$ref": "#/components/schemas/Expression"}], "description": "Boolean-valued expression"}, "id": {"type": "string", "description": "Unique id for inter-element referencing"}, "kind": {"type": "string", "description": "applicability | start | stop"}}, "required": ["id", "kind"]}, "RequestGroup.action.relatedAction": {"description": "", "type": "object", "properties": {"actionId": {"type": "string", "description": "What action this is related to"}, "id": {"type": "string", "description": "Unique id for inter-element referencing"}, "offset[x]": {"type": "string", "description": "Time offset for the relationship"}, "offsetDuration": {"type": "object", "allOf": [{"$ref": "#/components/schemas/Duration"}], "description": "UNABLE TO FIND RESOURCE/ELEMENT NAME"}, "offsetRange": {"type": "object", "allOf": [{"$ref": "#/components/schemas/Range"}], "description": "UNABLE TO FIND RESOURCE/ELEMENT NAME"}, "relationship": {"type": "string", "description": "before-start | before | before-end | concurrent-with-start | concurrent | concurrent-with-end | after-start | after | after-end"}}, "required": ["id", "actionId", "relationship"]}, "Reference": {"description": "", "type": "object", "properties": {"display": {"type": "string", "description": "Plain text narrative that identifies the resource in addition to the resource reference."}, "id": {"type": "string", "description": ""}, "identifier": {"type": "object", "allOf": [{"$ref": "#/components/schemas/Identifier"}], "description": "Logical reference, when literal reference is not known"}, "reference": {"type": "string", "description": "Literal reference, Relative, internal or absolute URL"}, "type": {"type": "string", "description": "Type the reference refers to (e.g. \"Patient\")"}}, "required": ["id"]}, "CodeableConcept": {"description": "", "type": "object", "properties": {"coding": {"type": "array", "items": {"$ref": "#/components/schemas/Coding"}, "description": "A reference to a code defined by a terminology system."}, "id": {"type": "string", "description": ""}, "text": {"type": "string", "description": "Plain text representation of the concept"}}, "required": ["id"]}, "Resource": {"description": "Base Resource", "type": "object", "properties": {"id": {"type": "string", "description": "Logical id of this artifact"}, "implicitRules": {"type": "string", "description": "A set of rules under which this content was created"}, "language": {"type": "string", "description": "The base language in which the resource is written."}, "meta": {"type": "object", "allOf": [{"$ref": "#/components/schemas/Meta"}], "description": "Metadata about the resource"}}, "required": ["id"]}, "Extension": {"description": "", "type": "object", "properties": {"id": {"type": "string", "description": ""}, "url": {"type": "string", "description": "Source of the definition for the extension code - a logical name or a URL."}, "value[x]": {"type": "string", "description": "Value of extension"}, "valueAddress": {"type": "object", "allOf": [{"$ref": "#/components/schemas/Address"}], "description": ""}, "valueAge": {"type": "object", "allOf": [{"$ref": "#/components/schemas/Age"}], "description": ""}, "valueAnnotation": {"type": "object", "allOf": [{"$ref": "#/components/schemas/Annotation"}], "description": ""}, "valueAttachment": {"type": "object", "allOf": [{"$ref": "#/components/schemas/Attachment"}], "description": ""}, "valueBase64Binary": {"type": "string", "description": ""}, "valueBoolean": {"type": "boolean", "description": ""}, "valueCanonical": {"type": "string", "description": ""}, "valueCode": {"type": "string", "description": ""}, "valueCodeableConcept": {"type": "object", "allOf": [{"$ref": "#/components/schemas/CodeableConcept"}], "description": ""}, "valueCoding": {"type": "object", "allOf": [{"$ref": "#/components/schemas/Coding"}], "description": ""}, "valueContactDetail": {"type": "object", "allOf": [{"$ref": "#/components/schemas/ContactDetail"}], "description": ""}, "valueContactPoint": {"type": "object", "allOf": [{"$ref": "#/components/schemas/ContactPoint"}], "description": ""}, "valueContributor": {"type": "object", "allOf": [{"$ref": "#/components/schemas/Contributor"}], "description": ""}, "valueCount": {"type": "object", "allOf": [{"$ref": "#/components/schemas/Count"}], "description": ""}, "valueDataRequirement": {"type": "object", "allOf": [{"$ref": "#/components/schemas/DataRequirement"}], "description": ""}, "valueDate": {"type": "string", "description": ""}, "valueDateTime": {"type": "string", "description": ""}, "valueDecimal": {"type": "number", "description": ""}, "valueDistance": {"type": "object", "allOf": [{"$ref": "#/components/schemas/Distance"}], "description": ""}, "valueDosage": {"type": "object", "allOf": [{"$ref": "#/components/schemas/Dosage"}], "description": ""}, "valueDuration": {"type": "object", "allOf": [{"$ref": "#/components/schemas/Duration"}], "description": ""}, "valueExpression": {"type": "object", "allOf": [{"$ref": "#/components/schemas/Expression"}], "description": ""}, "valueHumanName": {"type": "object", "allOf": [{"$ref": "#/components/schemas/HumanName"}], "description": ""}, "valueId": {"type": "string", "description": ""}, "valueIdentifier": {"type": "object", "allOf": [{"$ref": "#/components/schemas/Identifier"}], "description": ""}, "valueInstant": {"type": "string", "description": ""}, "valueInteger": {"type": "number", "description": ""}, "valueMarkdown": {"type": "string", "description": ""}, "valueMeta": {"type": "object", "allOf": [{"$ref": "#/components/schemas/Meta"}], "description": ""}, "valueMoney": {"type": "object", "allOf": [{"$ref": "#/components/schemas/Money"}], "description": ""}, "valueOid": {"type": "string", "description": ""}, "valueParameterDefinition": {"type": "object", "allOf": [{"$ref": "#/components/schemas/ParameterDefinition"}], "description": ""}, "valuePeriod": {"type": "object", "allOf": [{"$ref": "#/components/schemas/Period"}], "description": ""}, "valuePositiveInt": {"type": "number", "description": ""}, "valueQuantity": {"type": "object", "allOf": [{"$ref": "#/components/schemas/Quantity"}], "description": ""}, "valueRange": {"type": "object", "allOf": [{"$ref": "#/components/schemas/Range"}], "description": ""}, "valueRatio": {"type": "object", "allOf": [{"$ref": "#/components/schemas/Ratio"}], "description": ""}, "valueReference": {"type": "object", "allOf": [{"$ref": "#/components/schemas/Reference"}], "description": ""}, "valueRelatedArtifact": {"type": "object", "allOf": [{"$ref": "#/components/schemas/RelatedArtifact"}], "description": ""}, "valueSampledData": {"type": "object", "allOf": [{"$ref": "#/components/schemas/SampledData"}], "description": ""}, "valueSignature": {"type": "object", "allOf": [{"$ref": "#/components/schemas/Signature"}], "description": ""}, "valueString": {"type": "string", "description": ""}, "valueTime": {"type": "string", "description": ""}, "valueTiming": {"type": "object", "allOf": [{"$ref": "#/components/schemas/Timing"}], "description": ""}, "valueTriggerDefinition": {"type": "object", "allOf": [{"$ref": "#/components/schemas/TriggerDefinition"}], "description": ""}, "valueUnsignedInt": {"type": "number", "description": ""}, "valueUri": {"type": "string", "description": ""}, "valueUrl": {"type": "string", "description": ""}, "valueUsageContext": {"type": "object", "allOf": [{"$ref": "#/components/schemas/UsageContext"}], "description": ""}, "valueUuid": {"type": "string", "description": ""}}, "required": ["id", "url"]}, "Identifier": {"description": "", "type": "object", "properties": {"assigner": {"type": "string", "description": "Organization that issued/manages the identifier."}, "id": {"type": "string", "description": ""}, "period": {"type": "object", "allOf": [{"$ref": "#/components/schemas/Period"}], "description": "Time period during which identifier is/was valid for use."}, "system": {"type": "string", "description": "The namespace for the identifier value"}, "type": {"type": "object", "allOf": [{"$ref": "#/components/schemas/CodeableConcept"}], "description": "Description of identifier"}, "use": {"type": "string", "description": "The purpose of this identifier."}, "value": {"type": "string", "description": "The value that is unique"}}, "required": ["id"]}, "Meta": {"description": "", "type": "object", "properties": {"id": {"type": "string", "description": ""}, "lastUpdated": {"type": "string", "description": "When the resource last changed - e.g. when the version changed."}, "profile": {"type": "string", "description": "Profiles this resource claims to conform to"}, "security": {"type": "array", "items": {"$ref": "#/components/schemas/Coding"}, "description": "Security Labels applied to this resource"}, "source": {"type": "string", "description": "Identifies where the resource comes from"}, "tag": {"type": "array", "items": {"$ref": "#/components/schemas/Coding"}, "description": "Tags applied to this resource"}, "versionId": {"type": "string", "description": "Version specific identifier"}}, "required": ["id"]}, "Annotation": {"description": "", "type": "object", "properties": {"author[x]": {"type": "string", "description": "The individual responsible for making the annotation."}, "authorReference": {"type": "object", "allOf": [{"$ref": "#/components/schemas/Reference"}], "description": ""}, "authorString": {"type": "string", "description": ""}, "id": {"type": "string", "description": ""}, "text": {"type": "string", "description": "The text of the annotation in markdown format."}, "time": {"type": "string", "description": "Indicates when this particular annotation was made."}}, "required": ["id", "text"]}, "Narrative": {"description": "", "type": "object", "properties": {"div": {"description": "The actual narrative content, a stripped down version of XHTML."}, "id": {"type": "string", "description": ""}, "status": {"type": "string", "description": "generated | extensions | additional | empty"}}, "required": ["id", "div", "status"]}, "Coding": {"description": "", "type": "object", "properties": {"code": {"type": "string", "description": "Symbol in syntax defined by the system"}, "display": {"type": "string", "description": "A representation of the meaning of the code in the system, following the rules of the system."}, "id": {"type": "string", "description": ""}, "system": {"type": "string", "description": "The identification of the code system that defines the meaning of the symbol in the code."}, "userSelected": {"type": "boolean", "description": "If this coding was chosen directly by the user"}, "version": {"type": "string", "description": "Version of the system - if relevant"}}, "required": ["id"]}, "Period": {"description": "", "type": "object", "properties": {"end": {"type": "string", "description": "End time with inclusive boundary, if not ongoing"}, "id": {"type": "string", "description": ""}, "start": {"type": "string", "description": "The start of the period. The boundary is inclusive."}}, "required": ["id"]}, "RelatedArtifact": {"description": "", "type": "object", "properties": {"citation": {"type": "string", "description": "Bibliographic citation for the artifact"}, "display": {"type": "string", "description": "Brief description of the related artifact"}, "document": {"type": "object", "allOf": [{"$ref": "#/components/schemas/Attachment"}], "description": "What document is being referenced"}, "id": {"type": "string", "description": ""}, "label": {"type": "string", "description": "Short label"}, "resource": {"type": "string", "description": "The related resource, such as a library, value set, profile, or other knowledge resource."}, "type": {"type": "string", "description": "The type of relationship to the related artifact."}, "url": {"type": "string", "description": "A url for the artifact that can be followed to access the actual content."}}, "required": ["id", "type"]}, "Age": {"description": "", "type": "object", "properties": {"code": {"type": "string", "description": ""}, "comparator": {"type": "string", "description": ""}, "id": {"type": "string", "description": ""}, "system": {"type": "string", "description": ""}, "unit": {"type": "string", "description": ""}, "value": {"type": "number", "description": ""}}, "required": ["id"]}, "Duration": {"description": "", "type": "object", "properties": {"code": {"type": "string", "description": ""}, "comparator": {"type": "string", "description": ""}, "id": {"type": "string", "description": ""}, "system": {"type": "string", "description": ""}, "unit": {"type": "string", "description": ""}, "value": {"type": "number", "description": ""}}, "required": ["id"]}, "Range": {"description": "", "type": "object", "properties": {"high": {"type": "object", "allOf": [{"$ref": "#/components/schemas/Quantity"}], "description": "The high limit. The boundary is inclusive."}, "id": {"type": "string", "description": ""}, "low": {"type": "object", "allOf": [{"$ref": "#/components/schemas/Quantity"}], "description": "The low limit. The boundary is inclusive."}}, "required": ["id"]}, "Timing": {"description": "", "type": "object", "properties": {"code": {"type": "object", "allOf": [{"$ref": "#/components/schemas/CodeableConcept"}], "description": "BID | TID | QID | AM | PM | QD | QOD | +"}, "event": {"type": "string", "description": "Identifies specific times when the event occurs."}, "id": {"type": "string", "description": ""}, "repeat": {"type": "object", "allOf": [{"$ref": "#/components/schemas/Timing.repeat"}], "description": ""}}, "required": ["id"]}, "Expression": {"description": "", "type": "object", "properties": {"description": {"type": "string", "description": "Natural language description of the condition"}, "expression": {"type": "string", "description": "An expression in the specified language that returns a value."}, "id": {"type": "string", "description": ""}, "language": {"type": "string", "description": "The media type of the language for the expression."}, "name": {"type": "string", "description": "Short name assigned to expression for reuse"}, "reference": {"type": "string", "description": "A URI that defines where the expression is found."}}, "required": ["id", "language"]}}, "securitySchemes": {"ApiKeyAuth": {"type": "apiKey", "in": "header", "name": "X-API-Key"}}}, "security": [{"ApiKeyAuth": ["user/*.write", "user/*.*"]}]}