{"paths": {"/RiskAssessment/{id}/_history": {"get": {"tags": ["RiskAssessment"], "parameters": [{"name": "id", "in": "path", "required": true, "schema": {"type": "string"}}, {"name": "_count", "in": "query", "schema": {"type": "string"}}, {"name": "_since", "in": "query", "schema": {"type": "string"}}], "responses": {"200": {"description": "Success", "content": {"application/fhir+json": {"schema": {"type": "array", "items": {"$ref": "#/components/schemas/RiskAssessment"}}}}}, "400": {"description": "Invalid"}, "404": {"description": "Not-Found"}, "406": {"description": "Not-Supported"}, "503": {"description": "Operation"}, "401": {"description": "Unauthorized"}, "403": {"description": "Forbidden"}, "415": {"description": "Unsupported-Type"}, "500": {"description": "Internal-Error"}, "502": {"description": "Bad-Gateway"}}, "security": [{"ApiKeyAuth": ["user/*.write", "user/*.*"]}]}}, "/RiskAssessment": {"post": {"tags": ["RiskAssessment"], "responses": {"200": {"description": "Success", "content": {}}, "400": {"description": "Invalid"}, "404": {"description": "Not-Found"}, "406": {"description": "Not-Supported"}, "503": {"description": "Operation"}, "401": {"description": "Unauthorized"}, "403": {"description": "Forbidden"}, "415": {"description": "Unsupported-Type"}, "500": {"description": "Internal-Error"}, "502": {"description": "Bad-Gateway"}}, "requestBody": {"content": {"application/fhir+json": {"schema": {"$ref": "#/components/schemas/RiskAssessment"}, "examples": {"riskassessment-example-breastcancer.json": {"value": {"resourceType": "RiskAssessment", "id": "breastcancer-risk", "text": {"status": "additional", "div": "<div xmlns=\"http://www.w3.org/1999/xhtml\">\n      <table>\n        <tr>\n          <td colspan=\"2\">\n            <h1>Information about your risk score:</h1>\n          </td>\n        </tr>\n        <tr>\n          <td>\n            <strong>Birthdate:</strong>\n          </td>\n          <td>1981-01-01</td>\n        </tr>\n        <tr>\n          <td>\n            <strong>Gender:</strong>\n          </td>\n          <td>female</td>\n        </tr>\n        <tr>\n          <td>\n            <strong>Ethnicity:</strong>\n          </td>\n          <td>Unknown / Not Reported</td>\n        </tr>\n      </table>\n    </div>"}, "identifier": [{"use": "official", "system": "http://example.org", "value": "risk-assessment-breastcancer1"}], "status": "final", "code": {"coding": [{"system": "http://browser.ihtsdotools.org/", "code": "709510001", "display": "Assessment of risk for disease (procedure)"}]}, "subject": {"reference": "Patient/example"}, "performer": {"reference": "Practitioner/example"}, "basis": [{"reference": "Observation/example-genetics-brcapat"}], "prediction": [{"outcome": {"text": "Unknown risk of developing breast cancer"}}], "note": [{"text": "This risk assessment is based on BRCA1 and BRCA2 genetic mutation test"}], "meta": {"tag": [{"system": "http://terminology.hl7.org/CodeSystem/v3-ActReason", "code": "HTEST", "display": "test health data"}]}}}, "riskassessment-example-cardiac.json": {"value": {"resourceType": "RiskAssessment", "id": "cardiac", "text": {"status": "additional", "div": "<div xmlns=\"http://www.w3.org/1999/xhtml\">\n      <table>\n        <tr>\n          <td colspan=\"2\">\n            <h1>Information about your risk score:</h1>\n          </td>\n        </tr>\n        <tr>\n          <td>\n            <strong>Age:</strong>\n          </td>\n          <td>39</td>\n        </tr>\n        <tr>\n          <td>\n            <strong>Gender:</strong>\n          </td>\n          <td>male</td>\n        </tr>\n        <tr>\n          <td>\n            <strong>Total Cholesterol:</strong>\n          </td>\n          <td>244 mg/dL</td>\n        </tr>\n        <tr>\n          <td>\n            <strong>HDL Cholesterol:</strong>\n          </td>\n          <td>50 mg/dL\n          </td>\n        </tr>\n        <tr>\n          <td>\n            <strong>Smoker:</strong>\n          </td>\n          <td>No</td>\n        </tr>\n        <tr>\n          <td>\n            <strong>Systolic Blood Pressure:</strong>\n          </td>\n          <td>107 mm/Hg</td>\n        </tr>\n        <tr>\n          <td>\n            <strong>On medication for HBP:</strong>\n          </td>\n          <td>No</td>\n        </tr>\n        <tr>\n          <td valign=\"top\">\n            <b>Risk Score*</b>\n          </td>\n          <td>2%<br/>Means 2 of 100 people with this level of risk will have a heart attack in the next 10 years.</td>\n        </tr>\n        <tr>\n          <td colspan=\"2\">* Your risk score was calculated using an equation.  Other NCEP products, such as printed ATP III materials, use a point system to determine a risk score that is close to the equation score.</td>\n        </tr>\n        <tr>\n          <td colspan=\"2\">To find out what your risk score means and how to lower your risk for a heart attack, go to<br/>\n            <a href=\"http://www.nhlbi.nih.gov/health/public/heart/chol/hbc_what.htm\">&quot;High Blood Cholesterol\u2014What You Need to Know&quot;</a>.<br/>\n            <a href=\"http://www.nhlbi.nih.gov/health/public/heart/chol/chol_tlc.htm\">Your Guide to Lowering Cholesterol with Therapeutic Lifestyle Changes (TLC)</a><br/>\n            <a href=\"http://www.nhlbi.nih.gov/health/public/heart/other/hhw/index.htm\">The Healthy Heart Handbook for Women</a>\n          </td>\n        </tr>\n      </table>\n    </div>"}, "identifier": [{"use": "official", "system": "http://example.org", "value": "risk-assessment-cardiac"}], "status": "final", "subject": {"reference": "Patient/pat2"}, "encounter": {"reference": "Encounter/example"}, "occurrenceDateTime": "2014-07-19T16:04:00Z", "performer": {"display": "http://cvdrisk.nhlbi.nih.gov/#cholesterol"}, "basis": [{"reference": "Patient/pat2"}, {"reference": "DiagnosticReport/lipids"}, {"reference": "Observation/blood-pressure"}], "prediction": [{"outcome": {"text": "Heart Attack"}, "probabilityDecimal": 0.02, "whenRange": {"low": {"value": 39, "unit": "years", "system": "http://unitsofmeasure.org", "code": "a"}, "high": {"value": 49, "unit": "years", "system": "http://unitsofmeasure.org", "code": "a"}}}], "meta": {"tag": [{"system": "http://terminology.hl7.org/CodeSystem/v3-ActReason", "code": "HTEST", "display": "test health data"}]}}}, "riskassessment-example-population.json": {"value": {"resourceType": "RiskAssessment", "id": "population", "text": {"status": "generated", "div": "<div xmlns=\"http://www.w3.org/1999/xhtml\">\n      <p>Todo - e.g. probable number of infections in a given region over a time period for a given disease based on vaccination rates and other factors</p>\n    </div>"}, "contained": [{"resourceType": "Group", "id": "group1", "type": "person", "actual": false}], "status": "final", "subject": {"reference": "#group1"}, "meta": {"tag": [{"system": "http://terminology.hl7.org/CodeSystem/v3-ActReason", "code": "HTEST", "display": "test health data"}]}}}, "riskassessment-example-prognosis.json": {"value": {"resourceType": "RiskAssessment", "id": "prognosis", "text": {"status": "additional", "div": "<div xmlns=\"http://www.w3.org/1999/xhtml\">\n      <p>Moderate risk of permanent weakness of the left arm, but otherwise no permanent disability</p>\n    </div>"}, "status": "final", "subject": {"reference": "Patient/example"}, "occurrenceDateTime": "2010-11-22", "condition": {"reference": "Condition/stroke", "display": "Ischemic Stroke"}, "prediction": [{"outcome": {"coding": [{"system": "http://snomed.info/sct", "code": "249943000:363698007=72098002,260868000=6934004"}], "text": "permanent weakness of the left arm"}, "qualitativeRisk": {"coding": [{"system": "http://terminology.hl7.org/CodeSystem/risk-probability", "code": "moderate", "display": "moderate likelihood"}]}}], "meta": {"tag": [{"system": "http://terminology.hl7.org/CodeSystem/v3-ActReason", "code": "HTEST", "display": "test health data"}]}}}, "riskassessment-example.json": {"value": {"resourceType": "RiskAssessment", "id": "genetic", "text": {"status": "generated", "div": "<div xmlns=\"http://www.w3.org/1999/xhtml\">\n      <p>Probability of developing breast cancer before the age indicated:</p>\n      <table>\n        <thead>\n          <tr>\n            <th>Age</th>\n            <th>Probability (%)</th>\n          </tr>\n        </thead>\n        <tbody>\n          <tr>\n            <td>current-53</td>\n            <td>0.0168</td>\n          </tr>\n          <tr>\n            <td>54-57</td>\n            <td>0.0368</td>\n          </tr>\n          <tr>\n            <td>58-62</td>\n            <td>0.0594</td>\n          </tr>\n          <tr>\n            <td>63-67</td>\n            <td>0.0838</td>\n          </tr>\n          <tr>\n            <td>68-72</td>\n            <td>0.1089</td>\n          </tr>\n          <tr>\n            <td>73-77</td>\n            <td>0.1327</td>\n          </tr>\n          <tr>\n            <td>78-82</td>\n            <td>0.1530</td>\n          </tr>\n          <tr>\n            <td>83-87</td>\n            <td>0.1663</td>\n          </tr>\n        </tbody>\n      </table>\n    </div>"}, "status": "final", "method": {"coding": [{"code": "BRCAPRO"}]}, "subject": {"reference": "Patient/b248b1b2-1686-4b94-9936-37d7a5f94b51"}, "occurrenceDateTime": "2006-01-13T23:01:00Z", "basis": [{"reference": "List/prognosis"}], "prediction": [{"outcome": {"text": "Breast Cancer"}, "probabilityDecimal": 0.000168, "whenRange": {"high": {"value": 53, "unit": "years", "system": "http://unitsofmeasure.org", "code": "a"}}}, {"outcome": {"text": "Breast Cancer"}, "probabilityDecimal": 0.000368, "whenRange": {"low": {"value": 54, "unit": "years", "system": "http://unitsofmeasure.org", "code": "a"}, "high": {"value": 57, "unit": "years", "system": "http://unitsofmeasure.org", "code": "a"}}}, {"outcome": {"text": "Breast Cancer"}, "probabilityDecimal": 0.000594, "whenRange": {"low": {"value": 58, "unit": "years", "system": "http://unitsofmeasure.org", "code": "a"}, "high": {"value": 62, "unit": "years", "system": "http://unitsofmeasure.org", "code": "a"}}}, {"outcome": {"text": "Breast Cancer"}, "probabilityDecimal": 0.000838, "whenRange": {"low": {"value": 63, "unit": "years", "system": "http://unitsofmeasure.org", "code": "a"}, "high": {"value": 67, "unit": "years", "system": "http://unitsofmeasure.org", "code": "a"}}}, {"outcome": {"text": "Breast Cancer"}, "probabilityDecimal": 0.001089, "whenRange": {"low": {"value": 68, "unit": "years", "system": "http://unitsofmeasure.org", "code": "a"}, "high": {"value": 72, "unit": "years", "system": "http://unitsofmeasure.org", "code": "a"}}}, {"outcome": {"text": "Breast Cancer"}, "probabilityDecimal": 0.001327, "whenRange": {"low": {"value": 73, "unit": "years", "system": "http://unitsofmeasure.org", "code": "a"}, "high": {"value": 77, "unit": "years", "system": "http://unitsofmeasure.org", "code": "a"}}}, {"outcome": {"text": "Breast Cancer"}, "probabilityDecimal": 0.00153, "whenRange": {"low": {"value": 78, "unit": "years", "system": "http://unitsofmeasure.org", "code": "a"}, "high": {"value": 82, "unit": "years", "system": "http://unitsofmeasure.org", "code": "a"}}}, {"outcome": {"text": "Breast Cancer"}, "probabilityDecimal": 0.001663, "whenRange": {"low": {"value": 83, "unit": "years", "system": "http://unitsofmeasure.org", "code": "a"}, "high": {"value": 88, "unit": "years", "system": "http://unitsofmeasure.org", "code": "a"}}}], "note": [{"text": "High degree of certainty"}], "meta": {"tag": [{"system": "http://terminology.hl7.org/CodeSystem/v3-ActReason", "code": "HTEST", "display": "test health data"}]}}}}}}}, "security": [{"ApiKeyAuth": ["user/*.write", "user/*.*"]}]}, "get": {"tags": ["RiskAssessment"], "parameters": [{"name": "condition", "in": "query", "schema": {"type": "string"}, "description": "Condition assessed"}, {"name": "date", "in": "query", "schema": {"type": "string", "format": "date"}, "description": "When was assessment made?"}, {"name": "encounter", "in": "query", "schema": {"type": "string"}, "description": "Where was assessment performed?"}, {"name": "identifier", "in": "query", "schema": {"type": "string"}, "description": "Unique identifier for the assessment"}, {"name": "method", "in": "query", "schema": {"type": "string"}, "description": "Evaluation mechanism"}, {"name": "patient", "in": "query", "schema": {"type": "string"}, "description": "Who/what does assessment apply to?"}, {"name": "performer", "in": "query", "schema": {"type": "string"}, "description": "Who did assessment?"}, {"name": "probability", "in": "query", "schema": {"type": "number"}, "description": "Likelihood of specified outcome"}, {"name": "risk", "in": "query", "schema": {"type": "string"}, "description": "Likelihood of specified outcome as a qualitative value"}, {"name": "subject", "in": "query", "schema": {"type": "string"}, "description": "Who/what does assessment apply to?"}], "responses": {"200": {"description": "Success", "content": {"application/fhir+json": {"schema": {"$ref": "#/components/schemas/RiskAssessment"}}}}, "400": {"description": "Invalid"}, "404": {"description": "Not-Found"}, "406": {"description": "Not-Supported"}, "503": {"description": "Operation"}, "401": {"description": "Unauthorized"}, "403": {"description": "Forbidden"}, "415": {"description": "Unsupported-Type"}, "500": {"description": "Internal-Error"}, "502": {"description": "Bad-Gateway"}}, "security": [{"ApiKeyAuth": ["user/*.write", "user/*.*"]}]}}, "/RiskAssessment/{id}/_history/{vid}": {"get": {"tags": ["RiskAssessment"], "parameters": [{"name": "id", "in": "path", "required": true, "schema": {"type": "string"}}, {"name": "vid", "in": "path", "required": true, "schema": {"type": "string"}}], "responses": {"200": {"description": "Success", "content": {"application/fhir+json": {"schema": {"$ref": "#/components/schemas/RiskAssessment"}}}}, "400": {"description": "Invalid"}, "404": {"description": "Not-Found"}, "406": {"description": "Not-Supported"}, "503": {"description": "Operation"}, "401": {"description": "Unauthorized"}, "403": {"description": "Forbidden"}, "415": {"description": "Unsupported-Type"}, "500": {"description": "Internal-Error"}, "502": {"description": "Bad-Gateway"}}, "security": [{"ApiKeyAuth": ["user/*.write", "user/*.*"]}]}}, "/RiskAssessment/{id}": {"parameters": [{"in": "path", "required": true, "name": "id", "schema": {"type": "string"}}], "get": {"tags": ["RiskAssessment"], "parameters": [], "responses": {"200": {"description": "Success", "content": {"application/fhir+json": {"schema": {"$ref": "#/components/schemas/RiskAssessment"}}}}, "400": {"description": "Invalid"}, "404": {"description": "Not-Found"}, "406": {"description": "Not-Supported"}, "503": {"description": "Operation"}, "401": {"description": "Unauthorized"}, "403": {"description": "Forbidden"}, "415": {"description": "Unsupported-Type"}, "500": {"description": "Internal-Error"}, "502": {"description": "Bad-Gateway"}}, "security": [{"ApiKeyAuth": ["user/*.write", "user/*.*"]}]}, "put": {"tags": ["RiskAssessment"], "responses": {"200": {"description": "Success", "content": {}}, "400": {"description": "Invalid"}, "404": {"description": "Not-Found"}, "406": {"description": "Not-Supported"}, "503": {"description": "Operation"}, "401": {"description": "Unauthorized"}, "403": {"description": "Forbidden"}, "415": {"description": "Unsupported-Type"}, "500": {"description": "Internal-Error"}, "502": {"description": "Bad-Gateway"}}, "requestBody": {"content": {"application/fhir+json": {"schema": {"$ref": "#/components/schemas/RiskAssessment"}}}}, "security": [{"ApiKeyAuth": ["user/*.write", "user/*.*"]}]}, "delete": {"tags": ["RiskAssessment"], "parameters": [], "responses": {"200": {"description": "Success", "content": {}}, "400": {"description": "Invalid"}, "404": {"description": "Not-Found"}, "406": {"description": "Not-Supported"}, "503": {"description": "Operation"}, "401": {"description": "Unauthorized"}, "403": {"description": "Forbidden"}, "415": {"description": "Unsupported-Type"}, "500": {"description": "Internal-Error"}, "502": {"description": "Bad-Gateway"}}, "security": [{"ApiKeyAuth": ["user/*.write", "user/*.*"]}]}}}, "info": {"description": "Potential outcomes for a subject with likelihood", "title": "FHIR R4 RiskAssessment Resource", "version": "unspecified"}, "tags": [{"name": "RiskAssessment"}], "openapi": "3.0.1", "servers": [{"url": "http://localhost:52774/csp/healthshare/fhirtest/fhir/r4"}], "components": {"schemas": {"RiskAssessment": {"description": "Potential outcomes for a subject with likelihood", "type": "object", "properties": {"basedOn": {"type": "object", "allOf": [{"$ref": "#/components/schemas/Reference"}], "description": "A reference to the request that is fulfilled by this risk assessment."}, "basis": {"type": "array", "items": {"$ref": "#/components/schemas/Reference"}, "description": "Information used in assessment"}, "code": {"type": "object", "allOf": [{"$ref": "#/components/schemas/CodeableConcept"}], "description": "The type of the risk assessment performed."}, "condition": {"type": "object", "allOf": [{"$ref": "#/components/schemas/Reference"}], "description": "Condition assessed"}, "contained": {"type": "array", "items": {"$ref": "#/components/schemas/Resource"}, "description": "Contained, inline Resources"}, "encounter": {"type": "object", "allOf": [{"$ref": "#/components/schemas/Reference"}], "description": "The encounter where the assessment was performed."}, "id": {"type": "string", "description": "Logical id of this artifact"}, "identifier": {"type": "array", "items": {"$ref": "#/components/schemas/Identifier"}, "description": "Business identifier assigned to the risk assessment."}, "implicitRules": {"type": "string", "description": "A set of rules under which this content was created"}, "language": {"type": "string", "description": "The base language in which the resource is written."}, "meta": {"type": "object", "allOf": [{"$ref": "#/components/schemas/Meta"}], "description": "Metadata about the resource"}, "method": {"type": "object", "allOf": [{"$ref": "#/components/schemas/CodeableConcept"}], "description": "The algorithm, process or mechanism used to evaluate the risk."}, "mitigation": {"type": "string", "description": "A description of the steps that might be taken to reduce the identified risk(s)."}, "note": {"type": "array", "items": {"$ref": "#/components/schemas/Annotation"}, "description": "Additional comments about the risk assessment."}, "occurrence[x]": {"type": "string", "description": "The date (and possibly time) the risk assessment was performed."}, "occurrenceDateTime": {"type": "string", "description": ""}, "occurrencePeriod": {"type": "object", "allOf": [{"$ref": "#/components/schemas/Period"}], "description": ""}, "parent": {"type": "object", "allOf": [{"$ref": "#/components/schemas/Reference"}], "description": "A reference to a resource that this risk assessment is part of, such as a Procedure."}, "performer": {"type": "object", "allOf": [{"$ref": "#/components/schemas/Reference"}], "description": "The provider or software application that performed the assessment."}, "prediction": {"type": "array", "items": {"$ref": "#/components/schemas/RiskAssessment.prediction"}, "description": ""}, "reasonCode": {"type": "array", "items": {"$ref": "#/components/schemas/CodeableConcept"}, "description": "The reason the risk assessment was performed."}, "reasonReference": {"type": "array", "items": {"$ref": "#/components/schemas/Reference"}, "description": "Resources supporting the reason the risk assessment was performed."}, "status": {"type": "string", "description": "The status of the RiskAssessment, using the same statuses as an Observation."}, "subject": {"type": "object", "allOf": [{"$ref": "#/components/schemas/Reference"}], "description": "The patient or group the risk assessment applies to."}, "text": {"type": "object", "allOf": [{"$ref": "#/components/schemas/Narrative"}], "description": "Text summary of the resource, for human interpretation"}}, "required": ["id", "status", "subject"]}, "RiskAssessment.prediction": {"description": "", "type": "object", "properties": {"id": {"type": "string", "description": "Unique id for inter-element referencing"}, "outcome": {"type": "object", "allOf": [{"$ref": "#/components/schemas/CodeableConcept"}], "description": "Possible outcome for the subject"}, "probability[x]": {"type": "string", "description": "Likelihood of specified outcome"}, "probabilityDecimal": {"type": "number", "description": "UNABLE TO FIND RESOURCE/ELEMENT NAME"}, "probabilityRange": {"type": "object", "allOf": [{"$ref": "#/components/schemas/Range"}], "description": "UNABLE TO FIND RESOURCE/ELEMENT NAME"}, "qualitativeRisk": {"type": "object", "allOf": [{"$ref": "#/components/schemas/CodeableConcept"}], "description": "Likelihood of specified outcome as a qualitative value"}, "rationale": {"type": "string", "description": "Explanation of prediction"}, "relativeRisk": {"type": "number", "description": "Relative likelihood"}, "when[x]": {"type": "string", "description": "Timeframe or age range"}, "whenPeriod": {"type": "object", "allOf": [{"$ref": "#/components/schemas/Period"}], "description": "UNABLE TO FIND RESOURCE/ELEMENT NAME"}, "whenRange": {"type": "object", "allOf": [{"$ref": "#/components/schemas/Range"}], "description": "UNABLE TO FIND RESOURCE/ELEMENT NAME"}}, "required": ["id"]}, "Reference": {"description": "", "type": "object", "properties": {"display": {"type": "string", "description": "Plain text narrative that identifies the resource in addition to the resource reference."}, "id": {"type": "string", "description": ""}, "identifier": {"type": "object", "allOf": [{"$ref": "#/components/schemas/Identifier"}], "description": "Logical reference, when literal reference is not known"}, "reference": {"type": "string", "description": "Literal reference, Relative, internal or absolute URL"}, "type": {"type": "string", "description": "Type the reference refers to (e.g. \"Patient\")"}}, "required": ["id"]}, "CodeableConcept": {"description": "", "type": "object", "properties": {"coding": {"type": "array", "items": {"$ref": "#/components/schemas/Coding"}, "description": "A reference to a code defined by a terminology system."}, "id": {"type": "string", "description": ""}, "text": {"type": "string", "description": "Plain text representation of the concept"}}, "required": ["id"]}, "Resource": {"description": "Base Resource", "type": "object", "properties": {"id": {"type": "string", "description": "Logical id of this artifact"}, "implicitRules": {"type": "string", "description": "A set of rules under which this content was created"}, "language": {"type": "string", "description": "The base language in which the resource is written."}, "meta": {"type": "object", "allOf": [{"$ref": "#/components/schemas/Meta"}], "description": "Metadata about the resource"}}, "required": ["id"]}, "Extension": {"description": "", "type": "object", "properties": {"id": {"type": "string", "description": ""}, "url": {"type": "string", "description": "Source of the definition for the extension code - a logical name or a URL."}, "value[x]": {"type": "string", "description": "Value of extension"}, "valueAddress": {"type": "object", "allOf": [{"$ref": "#/components/schemas/Address"}], "description": ""}, "valueAge": {"type": "object", "allOf": [{"$ref": "#/components/schemas/Age"}], "description": ""}, "valueAnnotation": {"type": "object", "allOf": [{"$ref": "#/components/schemas/Annotation"}], "description": ""}, "valueAttachment": {"type": "object", "allOf": [{"$ref": "#/components/schemas/Attachment"}], "description": ""}, "valueBase64Binary": {"type": "string", "description": ""}, "valueBoolean": {"type": "boolean", "description": ""}, "valueCanonical": {"type": "string", "description": ""}, "valueCode": {"type": "string", "description": ""}, "valueCodeableConcept": {"type": "object", "allOf": [{"$ref": "#/components/schemas/CodeableConcept"}], "description": ""}, "valueCoding": {"type": "object", "allOf": [{"$ref": "#/components/schemas/Coding"}], "description": ""}, "valueContactDetail": {"type": "object", "allOf": [{"$ref": "#/components/schemas/ContactDetail"}], "description": ""}, "valueContactPoint": {"type": "object", "allOf": [{"$ref": "#/components/schemas/ContactPoint"}], "description": ""}, "valueContributor": {"type": "object", "allOf": [{"$ref": "#/components/schemas/Contributor"}], "description": ""}, "valueCount": {"type": "object", "allOf": [{"$ref": "#/components/schemas/Count"}], "description": ""}, "valueDataRequirement": {"type": "object", "allOf": [{"$ref": "#/components/schemas/DataRequirement"}], "description": ""}, "valueDate": {"type": "string", "description": ""}, "valueDateTime": {"type": "string", "description": ""}, "valueDecimal": {"type": "number", "description": ""}, "valueDistance": {"type": "object", "allOf": [{"$ref": "#/components/schemas/Distance"}], "description": ""}, "valueDosage": {"type": "object", "allOf": [{"$ref": "#/components/schemas/Dosage"}], "description": ""}, "valueDuration": {"type": "object", "allOf": [{"$ref": "#/components/schemas/Duration"}], "description": ""}, "valueExpression": {"type": "object", "allOf": [{"$ref": "#/components/schemas/Expression"}], "description": ""}, "valueHumanName": {"type": "object", "allOf": [{"$ref": "#/components/schemas/HumanName"}], "description": ""}, "valueId": {"type": "string", "description": ""}, "valueIdentifier": {"type": "object", "allOf": [{"$ref": "#/components/schemas/Identifier"}], "description": ""}, "valueInstant": {"type": "string", "description": ""}, "valueInteger": {"type": "number", "description": ""}, "valueMarkdown": {"type": "string", "description": ""}, "valueMeta": {"type": "object", "allOf": [{"$ref": "#/components/schemas/Meta"}], "description": ""}, "valueMoney": {"type": "object", "allOf": [{"$ref": "#/components/schemas/Money"}], "description": ""}, "valueOid": {"type": "string", "description": ""}, "valueParameterDefinition": {"type": "object", "allOf": [{"$ref": "#/components/schemas/ParameterDefinition"}], "description": ""}, "valuePeriod": {"type": "object", "allOf": [{"$ref": "#/components/schemas/Period"}], "description": ""}, "valuePositiveInt": {"type": "number", "description": ""}, "valueQuantity": {"type": "object", "allOf": [{"$ref": "#/components/schemas/Quantity"}], "description": ""}, "valueRange": {"type": "object", "allOf": [{"$ref": "#/components/schemas/Range"}], "description": ""}, "valueRatio": {"type": "object", "allOf": [{"$ref": "#/components/schemas/Ratio"}], "description": ""}, "valueReference": {"type": "object", "allOf": [{"$ref": "#/components/schemas/Reference"}], "description": ""}, "valueRelatedArtifact": {"type": "object", "allOf": [{"$ref": "#/components/schemas/RelatedArtifact"}], "description": ""}, "valueSampledData": {"type": "object", "allOf": [{"$ref": "#/components/schemas/SampledData"}], "description": ""}, "valueSignature": {"type": "object", "allOf": [{"$ref": "#/components/schemas/Signature"}], "description": ""}, "valueString": {"type": "string", "description": ""}, "valueTime": {"type": "string", "description": ""}, "valueTiming": {"type": "object", "allOf": [{"$ref": "#/components/schemas/Timing"}], "description": ""}, "valueTriggerDefinition": {"type": "object", "allOf": [{"$ref": "#/components/schemas/TriggerDefinition"}], "description": ""}, "valueUnsignedInt": {"type": "number", "description": ""}, "valueUri": {"type": "string", "description": ""}, "valueUrl": {"type": "string", "description": ""}, "valueUsageContext": {"type": "object", "allOf": [{"$ref": "#/components/schemas/UsageContext"}], "description": ""}, "valueUuid": {"type": "string", "description": ""}}, "required": ["id", "url"]}, "Identifier": {"description": "", "type": "object", "properties": {"assigner": {"type": "string", "description": "Organization that issued/manages the identifier."}, "id": {"type": "string", "description": ""}, "period": {"type": "object", "allOf": [{"$ref": "#/components/schemas/Period"}], "description": "Time period during which identifier is/was valid for use."}, "system": {"type": "string", "description": "The namespace for the identifier value"}, "type": {"type": "object", "allOf": [{"$ref": "#/components/schemas/CodeableConcept"}], "description": "Description of identifier"}, "use": {"type": "string", "description": "The purpose of this identifier."}, "value": {"type": "string", "description": "The value that is unique"}}, "required": ["id"]}, "Meta": {"description": "", "type": "object", "properties": {"id": {"type": "string", "description": ""}, "lastUpdated": {"type": "string", "description": "When the resource last changed - e.g. when the version changed."}, "profile": {"type": "string", "description": "Profiles this resource claims to conform to"}, "security": {"type": "array", "items": {"$ref": "#/components/schemas/Coding"}, "description": "Security Labels applied to this resource"}, "source": {"type": "string", "description": "Identifies where the resource comes from"}, "tag": {"type": "array", "items": {"$ref": "#/components/schemas/Coding"}, "description": "Tags applied to this resource"}, "versionId": {"type": "string", "description": "Version specific identifier"}}, "required": ["id"]}, "Annotation": {"description": "", "type": "object", "properties": {"author[x]": {"type": "string", "description": "The individual responsible for making the annotation."}, "authorReference": {"type": "object", "allOf": [{"$ref": "#/components/schemas/Reference"}], "description": ""}, "authorString": {"type": "string", "description": ""}, "id": {"type": "string", "description": ""}, "text": {"type": "string", "description": "The text of the annotation in markdown format."}, "time": {"type": "string", "description": "Indicates when this particular annotation was made."}}, "required": ["id", "text"]}, "Period": {"description": "", "type": "object", "properties": {"end": {"type": "string", "description": "End time with inclusive boundary, if not ongoing"}, "id": {"type": "string", "description": ""}, "start": {"type": "string", "description": "The start of the period. The boundary is inclusive."}}, "required": ["id"]}, "Narrative": {"description": "", "type": "object", "properties": {"div": {"description": "The actual narrative content, a stripped down version of XHTML."}, "id": {"type": "string", "description": ""}, "status": {"type": "string", "description": "generated | extensions | additional | empty"}}, "required": ["id", "div", "status"]}, "Coding": {"description": "", "type": "object", "properties": {"code": {"type": "string", "description": "Symbol in syntax defined by the system"}, "display": {"type": "string", "description": "A representation of the meaning of the code in the system, following the rules of the system."}, "id": {"type": "string", "description": ""}, "system": {"type": "string", "description": "The identification of the code system that defines the meaning of the symbol in the code."}, "userSelected": {"type": "boolean", "description": "If this coding was chosen directly by the user"}, "version": {"type": "string", "description": "Version of the system - if relevant"}}, "required": ["id"]}, "Range": {"description": "", "type": "object", "properties": {"high": {"type": "object", "allOf": [{"$ref": "#/components/schemas/Quantity"}], "description": "The high limit. The boundary is inclusive."}, "id": {"type": "string", "description": ""}, "low": {"type": "object", "allOf": [{"$ref": "#/components/schemas/Quantity"}], "description": "The low limit. The boundary is inclusive."}}, "required": ["id"]}}, "securitySchemes": {"ApiKeyAuth": {"type": "apiKey", "in": "header", "name": "X-API-Key"}}}, "security": [{"ApiKeyAuth": ["user/*.write", "user/*.*"]}]}